GyroX,GyroY,GyroZ,Thumb,Index,Middle,Ring,Pinky,Gesture
9,4,12,25996,28783,36160,30408,33202,0
13,11,-2,26047,28783,35972,30591,33439,0
-6,32,1,26099,28840,36047,30317,33168,0
2,2,3,26047,28754,35861,30377,33439,0
15,0,-3,26176,28726,36010,30591,33236,0
17,-15,2,26124,28812,36010,30347,33474,0
-3,-15,13,26124,28783,35898,30377,33439,0
0,-10,4,26047,28754,36122,30499,33202,0
3,1,-11,26073,28812,35861,30469,33337,0
9,7,-6,25996,28669,35898,30469,33236,0
-11,-1,-8,26022,28812,36047,30286,33269,0
9,1,2,26022,28726,36010,30530,33236,0
-11,-12,-5,26124,28697,35787,30408,33439,0
-18,10,6,25996,28754,36085,30347,33067,0
4,-6,-5,26022,28697,36047,30438,33371,0
7,-3,-6,26073,28812,35861,30591,33371,0
-3,7,10,25971,28697,35861,30499,33236,0
3,4,1,25996,28840,35898,30347,33067,0
2,1,1,25843,28669,35861,30286,33168,0
-1,12,2,25717,28726,36010,30347,33337,0
5,-4,0,25793,28697,35861,30286,33371,0
9,8,-3,25666,28754,35824,30286,33236,0
8,12,-3,25691,28697,35972,30347,33405,0
4,4,1,25616,28754,35898,30408,33168,0
7,7,8,25691,28840,35712,30438,33134,0
10,-4,-7,25894,28783,36047,30469,33303,0
2,14,-5,25793,28697,35787,30286,33303,0
-2,12,2,25793,28669,35972,30408,33236,0
3,19,-9,25641,28612,35898,30469,33303,0
7,10,4,25691,28783,35972,30226,33303,0
5,12,-5,25691,28783,35935,30226,33337,0
-7,9,11,25717,28754,35676,30317,33100,0
31,20,-6,25691,28697,35787,30408,33371,0
18,7,3,25869,28840,35712,30530,33134,0
4,13,5,25996,28640,35787,30347,33337,0
7,31,7,26022,28640,35712,30653,33168,0
10,7,6,25945,28612,35824,30438,33168,0
27,-4,2,26022,28697,35639,30377,32966,0
-11,-10,1,25996,28726,35639,30317,33033,0
20,9,0,25894,28612,35565,30286,33202,0
4,-9,-7,25996,28697,35565,30347,33067,0
-5,-17,3,25793,28583,35749,30469,33303,0
19,0,-1,25869,28640,35749,30347,33100,0
1,-18,1,25818,28527,35749,30256,33337,0
1,-14,5,25742,28583,35861,30469,33202,0
13,-26,-9,25818,28555,35861,30408,33067,0
-20,-65,-8,25843,28442,35639,30469,33033,0
32,-39,-13,25818,28555,35309,30469,33100,0
24,-22,-51,25742,28527,35236,30226,32966,0
124,16,-61,25793,28612,35199,30165,32866,0
-40,180,-48,26202,28498,35309,30165,32765,0
7,40,-49,27041,28357,35309,30226,32765,0
208,-219,-189,28022,28357,35861,30591,32765,0
-173,-62,49,28022,28414,35676,30408,32238,0
31,28,17,27745,28133,35418,30226,31752,0
38,74,12,27391,28217,35565,30045,31656,0
73,56,26,27175,28245,35492,30165,31881,0
-79,114,38,26988,28357,35455,30165,31978,0
0,-16,11,26829,28245,35418,29955,31688,0
11,32,8,26935,28357,35272,30045,31978,0
-30,7,-17,26723,28357,35455,29925,31881,0
-8,-96,21,26539,28357,35418,30135,32010,0
35,-29,12,26670,28329,35382,30045,31946,0
-27,2,1,26618,28217,35055,30045,31656,0
-11,15,27,26513,27691,34130,29333,30869,0
48,-22,-12,26566,27800,34060,29158,30807,0
8,14,7,26566,27581,34200,29100,30776,0
44,44,0,26513,27499,33921,29158,30807,0
0,46,18,26409,27175,33679,28869,30653,0
2,8,11,26331,26749,33371,28583,30591,0
46,10,-9,26435,26749,33202,28498,30715,0
15,18,-8,26357,26670,33067,28498,30715,0
21,27,-15,26305,26435,32599,28583,30530,0
54,95,-1,26435,25742,32043,27966,30715,0
60,171,-27,26383,25591,31913,27966,30499,0
-27,-12,2,26331,25591,31624,27856,30499,0
30,-8,-24,26305,25440,31497,27800,30715,0
-4,20,-13,26383,25591,31370,27718,30377,0
-12,-45,2,26279,25515,31370,27718,30591,0
-24,-16,9,26253,25565,31497,27800,30469,0
-1,-6,-2,26176,25641,31434,27581,30591,0
-12,-50,23,26150,25641,31465,27745,30530,0
7,-30,4,26228,25666,31624,27691,30561,0
-8,2,-9,26253,25565,31593,27609,30715,0
2,-14,-9,26253,25591,31752,27856,30561,0
-22,-46,-1,26228,26047,32238,28189,30838,0
-76,-78,-1,26409,26566,33371,28583,31339,0
-46,1,19,26253,27041,34165,28669,31720,0
-68,-54,14,26435,27609,34553,28984,31849,0
12,46,-9,26513,27939,34982,29187,32303,0
-26,-2,20,26539,28245,35455,29158,32765,0
-48,-86,94,26961,28498,35712,29421,33100,0
-13,17,24,27229,28640,35861,29304,32999,0
3,-14,20,27256,28812,35787,29304,32799,0
-2,-40,-6,27095,28812,36010,29333,32765,0
59,57,-14,27068,28697,35602,29304,32899,0
18,-72,4,26908,28612,35309,29187,33033,0
12,4,6,26935,28527,35528,29042,32899,0
-29,-17,2,26749,28470,35418,29042,32732,0
-6,-8,3,26776,28357,35163,29187,32765,0
-19,-45,-12,26592,28414,35055,29013,32799,0
21,25,-5,26644,28189,35018,29187,32666,0
-23,-34,-8,26566,28301,35127,29042,32633,0
6,-63,-4,26513,28133,34946,29042,32832,0
-4,-5,18,26383,28022,34982,29042,32435,0
-8,29,-7,26409,28133,34803,29071,32566,0
-19,3,8,26357,28022,34874,29013,32402,0
51,36,-23,26331,28049,34803,28840,32369,0
-20,-164,9,26305,27939,34731,28869,32303,0
-87,-135,-31,26099,27856,34696,29129,32108,0
-29,-97,21,25894,27883,34376,29274,31656,0
28,-97,2,25894,27202,33645,28697,31497,0
58,67,1,26022,26723,33303,28498,31119,0
56,151,-12,26099,26409,32832,28470,31150,0
80,42,-17,26228,26176,32435,28470,30962,0
-4,-15,-9,26228,25945,32336,28301,30994,0
47,-10,-65,26228,26022,32369,28245,31056,0
-35,210,-23,26357,25996,32435,28470,31181,0
78,59,-40,26357,26150,32666,28470,31119,0
15,-4,-5,26305,26228,32799,28470,31276,0
12,65,-23,26331,26305,32866,28414,31307,0
-19,19,-16,26435,26331,32966,28583,31213,0
-102,-138,6,26435,26644,33067,28498,31402,0
-8,-24,0,26305,26723,33067,28498,31307,0
-87,-111,22,26228,26749,33033,28612,31087,0
-81,-95,19,26305,26776,32932,28527,31150,0
77,-125,7,26022,26935,32932,28442,31119,0
-19,-194,29,26124,26749,33134,28414,31056,0
-78,-47,9,26176,26802,33033,28301,30900,0
-23,17,2,26022,26644,32832,28414,30684,0
13,54,-24,25996,27015,33611,28470,30994,0
-48,-2,5,25894,27202,33921,28869,30962,0
-64,-43,0,25894,27256,34235,29158,31025,0
-40,9,2,25894,27256,34376,28927,30962,0
16,-2,-15,25666,26855,33508,28640,30715,0
-3,73,0,25691,26305,32999,28301,30715,0
11,128,-25,25616,26099,32402,27994,30499,0
54,76,-2,25616,26022,32402,28049,30499,0
7,69,-8,25616,25894,32435,28133,30469,0
-4,24,22,25291,25894,32435,28022,30622,0
23,-54,7,24727,26047,32832,28189,30591,0
-41,-60,6,24129,26150,33067,28217,30622,0
-10,-30,-8,23707,26409,32999,28329,30715,0
43,-57,30,25118,26331,32765,27994,30530,0
23,-33,23,26618,26202,32435,27966,30347,0
-20,-59,15,26409,26022,32108,27856,30105,0
-53,-43,25,26124,25894,32010,27499,29479,0
-59,-61,17,25894,25843,31978,26935,28583,0
76,-52,-7,25793,25920,31688,26697,28527,0
60,71,-16,25742,25742,31593,27175,29333,0
-35,43,-1,25691,25341,31465,27911,30105,0
-6,-12,6,25742,25216,31849,27966,30256,0
38,3,-12,25818,25192,32010,28245,30530,0
-12,-19,12,25793,24995,31978,28245,30438,0
18,-8,0,25894,24995,32173,28385,30226,0
14,21,-13,25945,25390,32666,28470,30962,0
3,-1,2,26124,25945,32832,28640,31244,0
106,-39,-31,26099,25894,32799,28640,31087,0
16,-20,6,26073,25996,33033,28527,30838,0
0,25,9,26124,26150,33439,28754,30745,0
-25,5,-14,25996,26539,34026,28470,30377,0
-9,12,-1,26124,26723,34341,28527,30591,0
-47,-37,3,25920,26749,34165,28498,30530,0
0,-7,6,25945,26697,33956,28527,30438,0
20,24,-14,25894,26539,33921,28927,31624,0
-7,18,0,25894,26566,33748,28840,31817,0
-18,64,1,25971,26228,33371,28840,32699,0
62,40,-22,25920,26099,33168,28754,32599,0
-34,-8,-2,25971,25869,32832,28527,32010,0
-32,-16,12,25894,26253,33033,28583,31402,0
-10,-29,14,25818,26435,33100,28583,31402,0
1,43,-4,25894,26357,33405,28527,31339,0
22,14,11,25945,26566,33371,28555,31465,0
23,22,-13,25945,26409,33236,28414,31593,0
-13,10,6,26566,26202,33337,28555,31339,0
-21,-15,32,27609,26150,33269,28414,31402,0
12,20,10,27828,26202,33202,28414,31339,0
0,30,50,27966,26150,33269,28414,31213,0
32,46,19,28385,26150,32932,28583,31339,0
57,-29,-21,28414,26099,33067,28498,31087,0
37,8,7,28245,26124,33100,28470,31307,0
22,-81,-24,27581,26202,33100,28385,31119,0
-12,11,4,27148,26513,33033,28555,30962,0
-3,-4,25,26961,26644,33202,28583,31087,0
-85,9,83,26618,26644,33542,28470,30994,0
-183,0,62,26723,26961,34060,28812,30994,0
73,-28,-33,26749,27148,34306,28783,31593,0
32,34,-11,26749,26988,34165,28869,31593,0
31,30,-34,26618,27068,34026,28583,31720,0
12,-8,0,26723,27310,34271,28583,31434,0
-10,-1,-14,26697,27256,34235,28754,31720,0
-61,-69,18,26618,26882,33679,28640,31150,0
0,-21,7,26461,26749,33439,28470,30994,0
63,74,-20,26723,26383,33269,28470,30900,0
43,81,-3,26723,26099,32966,28414,30776,0
-18,24,-10,26644,26150,32866,28217,30622,0
37,5,-15,26749,25971,32765,28301,30684,0
2,62,-13,26644,25843,32435,28527,30591,0
27,70,-19,26723,25691,32075,28640,30165,0
83,113,-34,26829,25666,32010,28189,30105,0
71,258,-95,27229,25390,31881,28022,30408,0
45,-53,-65,27175,25415,31688,27581,30469,0
-13,-65,-8,26988,25291,31624,27527,30226,0
62,77,-14,26961,25540,31465,27202,30075,0
3,-10,-20,26855,25515,31434,27148,30045,0
5,-20,18,26829,25565,31244,27068,29984,0
19,-13,-6,26855,25691,30962,26882,29984,0
7,-19,18,26935,25793,31213,26935,29686,0
-23,-55,-12,26670,25691,30745,26644,29450,0
-11,-10,2,26723,25341,30622,26723,29657,0
25,8,-3,26592,25440,30776,26723,29421,0
8,33,12,26618,25465,31119,27283,30226,0
-15,-20,-2,26618,25490,31025,27202,30015,0
8,6,-6,26513,25591,30962,27256,29775,0
27,-22,-3,26566,25666,31150,27068,29775,0
-9,-25,3,26566,25591,30962,26935,29686,0
-10,-7,-13,26513,25390,30469,26829,29568,0
29,3,-15,26513,25291,30347,26776,29362,0
0,-5,9,26461,25142,30317,26697,29245,0
1,36,3,26461,25266,30499,26670,29509,0
19,-8,1,26566,25142,30499,26566,29391,0
3,-40,11,26409,25266,30499,26513,29333,0
-29,-22,19,26383,25142,30347,26487,29509,0
2,7,-6,26357,25216,30530,26670,29187,0
7,6,2,26409,25241,30347,26697,29333,0
16,-25,3,26331,25142,30256,26644,29274,0
-17,-8,-17,26409,25118,30195,26409,29042,0
-5,5,-13,26487,24824,30015,26228,28927,0
21,11,-16,26435,24534,29746,26150,28927,0
52,129,-8,26461,24630,29657,26176,28898,0
-3,26,5,26513,24921,30256,26566,29274,0
10,15,7,26435,25019,30408,26855,29538,0
-18,-43,-14,26383,24970,30226,26618,29509,0
9,13,-2,26357,24897,30045,26409,29274,0
48,42,-31,26409,24897,29925,26305,29333,0
36,39,-8,26435,24995,29925,26331,29509,0
-15,-6,1,26461,24995,29925,26409,29274,0
-27,-38,9,26253,24848,29955,26409,29421,0
-9,-12,13,26357,24921,30045,26566,29304,0
-15,-25,1,26409,24824,29865,26383,29245,0
-9,0,3,26357,24799,29805,26202,29216,0
11,17,3,26487,24751,29509,26099,29042,0
13,-8,-1,26305,24702,29421,26022,28927,0
18,22,-21,26409,24438,29274,26124,29274,0
46,48,-21,26461,24366,28955,25971,29421,0
36,10,-28,26305,24294,28640,26022,29686,0
-22,-23,-16,26357,24366,28498,25894,29657,0
-37,-40,4,26279,24486,28612,25666,29100,0
-16,-13,-1,26357,24606,28527,25490,28840,0
-20,1,12,26305,24414,28301,25167,28555,0
-2,-34,-1,26409,24486,28105,25093,28527,0
-1,49,-3,26331,24510,28217,25490,28697,0
-25,-4,0,26409,24582,28301,25415,28955,0
-2,-12,-2,26331,24630,28301,25591,28726,0
-6,-1,5,26357,24606,28555,25490,28754,0
2,5,-9,26253,24630,28527,25641,28726,0
15,-22,8,26305,24606,28329,25365,28612,0
11,15,6,26331,24462,28357,25316,28697,0
18,2,6,26305,24606,28470,25291,28697,0
-14,2,3,26124,24630,28385,25515,28583,0
20,-2,-5,26305,24438,28301,25291,28498,0
26,11,-2,26228,24438,28022,25216,28385,0
6,12,-1,26409,24271,28161,25044,28442,0
-14,-6,34,26357,24129,27911,24897,28414,0
43,102,7,26461,24176,27939,25167,28555,0
3,113,36,26855,24462,29895,26383,29304,0
-89,116,85,26935,24727,30591,26829,29657,0
-339,183,318,26829,24630,30591,26882,30045,0
-677,160,301,26829,25717,32173,27800,30962,0
-500,142,272,27041,26988,33817,28697,30745,0
79,135,-80,27095,28357,36047,29865,30591,0
211,91,4,28470,29657,39077,31624,31593,0
-506,-324,487,30931,30226,39705,31624,33303,0
120,56,173,31244,29984,39244,31785,33508,0
153,-159,78,31181,29775,38503,31785,33748,0
76,142,-63,30715,29686,38463,31978,33887,0
90,18,-36,30530,29746,38100,31978,33991,0
144,29,-76,30165,29686,38220,31978,33991,0
26,-19,-4,30165,29657,37860,31624,33714,0
53,33,-17,30165,29479,37900,31752,33645,0
28,-9,-28,29925,29450,37940,31465,33439,0
-11,-25,-7,29895,29274,37583,31593,33371,0
4,33,-24,29746,29274,37386,31529,33337,0
30,11,0,29657,29304,37465,31402,33236,0
1,0,-6,29746,29071,37622,31244,33236,0
-16,-13,1,29686,29100,37426,31213,33474,0
-19,-20,6,29686,29216,37269,31150,33337,0
-54,-37,1,29450,29071,37114,31213,33168,0
-51,16,12,29391,29042,37269,31119,33168,0
-30,40,-24,29391,28927,37230,31244,33337,0
-52,19,-41,29304,29129,37269,30994,33100,0
-40,-24,-152,29158,29071,37230,30962,33202,0
-96,-122,-168,29158,29071,37114,30962,33202,0
-70,-53,-223,29158,28927,36920,31119,32966,0
125,-161,-257,29304,28927,36998,31181,32832,0
589,-298,-469,29538,28869,37191,31087,33067,0
386,90,-123,29746,28955,37075,30900,32899,0
435,28,-109,29925,29071,37308,30931,33033,0
159,-185,-364,30469,28955,36998,31087,32932,0
139,-149,-289,30469,28984,37269,30869,33033,0
124,11,-533,30469,29042,37036,30838,33100,0
21,103,-194,30347,28984,37269,30900,33067,0
141,124,30,29746,28955,36998,31087,32899,0
143,0,76,29657,28927,37075,30994,32932,0
120,-7,-14,29746,29100,37191,30776,32765,0
163,21,16,29597,29042,37191,31150,33033,0
237,40,-132,29835,28984,37230,31087,32765,0
66,15,-150,29895,29042,37075,30838,32932,0
57,-93,-60,29895,29013,37114,30962,32932,0
42,-66,-5,29775,28869,36920,31025,32899,0
410,-72,-144,30165,28869,36998,30807,32765,0
138,104,-82,30499,29013,37230,30962,32932,0
-73,25,40,30962,29042,37114,30994,32732,0
-44,6,47,30900,28984,37114,30838,32999,0
-219,95,124,30530,29042,36805,30653,32765,0
-894,141,245,30045,28927,36614,30776,32666,0
-614,53,134,30499,29071,36959,30776,32699,0
-58,127,26,31087,28898,36920,30745,32666,0
180,32,-85,31529,28927,36920,30745,32633,0
62,68,-71,31978,28783,36728,30776,32566,0
106,-17,-52,31497,28527,36767,31056,32500,0
17,41,-34,30745,28357,36462,31213,32500,0
196,23,-24,30591,28161,35935,30838,32633,0
94,-193,-93,30499,26150,33748,31244,32271,0
205,-265,22,32271,23847,31150,30653,31720,0
-42,-76,-15,31087,21167,28385,30256,31119,0
34,-56,10,30347,19573,26618,30045,30776,0
214,-20,-68,29627,19401,26022,29746,30715,0
90,-13,-20,29775,19766,26124,29775,30622,0
-41,32,0,29538,21002,27364,29686,30745,0
-125,3,54,29746,21754,28470,29657,30622,0
-30,-22,20,30165,22466,29304,29865,30838,0
-26,21,17,30347,22865,30165,30045,30715,0
19,18,-26,29955,22643,30015,29984,30622,0
-4,57,6,29865,22709,29895,29984,30869,0
-112,-72,-65,29421,20859,29013,29805,30438,0
-36,-77,-35,30165,18672,27883,29686,30438,0
41,-208,24,33439,15443,27041,29362,29925,0
219,-275,-1,33887,14488,26988,29333,29805,0
-46,231,87,34412,15304,26749,29450,29984,0
62,27,24,37820,16815,27229,29304,30165,0
23,19,27,39160,17600,28470,29274,29984,0
45,7,4,40002,18075,30408,29158,30286,0
5,-1,3,39917,18147,30622,29304,30135,0
0,40,-15,39663,18344,31276,29538,30377,0
-27,27,4,39494,18435,31339,29333,30286,0
-13,-15,13,39663,18344,31497,29627,30377,0
-3,24,12,39747,18344,31624,29568,30591,0
7,32,0,39832,18489,31624,29805,30684,0
-14,-13,15,40173,18783,32303,29746,30530,0
20,7,-7,40302,19212,32500,29775,30499,0
24,3,-7,40088,19249,32402,29746,30469,0
-4,-33,2,39960,19268,32271,29805,30715,0
-13,-22,14,39832,19174,32238,29805,30684,0
-17,-31,15,39790,19193,32303,29805,30499,0
17,-15,-1,39494,19155,32043,29686,30377,0
-10,-32,22,39536,19306,32238,29657,30438,0
7,5,-7,39536,19231,32205,29805,30591,0
-4,24,7,39285,19231,32173,29597,30591,0
16,-3,6,39411,19306,32010,29479,30530,0
16,10,3,39327,19420,32238,29509,30377,0
-2,15,10,39369,19401,32303,29746,30347,0
10,13,7,39244,19325,32271,29450,30653,0
4,-12,8,39119,19363,32271,29450,30622,0
-25,16,-4,39077,19401,32108,29627,30622,0
-14,9,6,39119,19420,32108,29450,30499,0
-4,-1,4,39244,19458,32271,29627,30653,0
19,1,-6,39244,19382,32205,29568,30591,0
-16,16,-1,39285,19535,32043,29538,30530,0
10,0,1,39244,19592,32108,29538,30408,0
8,1,-1,39202,19669,32402,29716,30408,0
10,0,1,39077,19573,32108,29686,30653,0
-18,-20,2,38995,19727,32140,29391,30653,0
0,-5,3,39244,19727,32369,29686,30347,0
-16,1,14,39077,19708,32173,29686,30561,0
15,-1,-13,39036,19669,32402,29421,30377,0
8,26,3,39369,19689,32140,29509,30684,0
-26,19,4,39244,19746,32238,29657,30499,0
18,5,-5,39244,19746,32173,29509,30684,0
35,-4,-14,39244,19805,32140,29657,30591,0
11,13,14,38995,19766,32369,29450,30530,0
11,-10,0,39036,19843,32140,29362,30530,0
11,3,4,39369,19902,32369,29686,30469,0
-5,0,-9,39160,19824,32435,29627,30438,0
7,5,-5,39036,19921,32402,29391,30347,0
-4,-7,-8,39494,19902,32271,29686,30591,0
11,10,-6,39119,19882,32173,29391,30469,0
13,6,3,38995,19843,32238,29627,30469,0
5,4,4,38912,19882,32173,29568,30377,0
5,0,-4,39160,19863,32238,29627,30469,0
27,24,-21,39036,19999,32303,29627,30591,0
14,-20,-4,39077,19999,32205,29391,30499,0
27,-5,-30,39244,19863,32271,29391,30377,0
3,-72,14,38871,19843,32010,29538,30347,0
-32,-2,-32,38301,18417,31339,29333,30286,0
-96,86,-60,36614,17933,30715,29274,30226,0
-49,3,-31,34839,17392,30745,29187,30256,0
7,62,-17,34200,17357,30622,29245,30015,0
-37,49,-14,30438,17513,30591,29274,30165,0
-37,51,14,30105,17862,30622,29158,30075,0
-25,28,15,29865,19231,31465,29304,30165,0
-114,31,50,29391,21146,33508,29158,30377,0
39,46,79,29450,23638,35861,29391,31150,0
43,68,100,30075,26150,38585,29835,31752,0
110,215,-19,31370,27828,39285,29746,32010,0
27,25,10,31561,27828,38912,29597,31785,0
-27,-42,11,31244,27527,38544,29657,31913,0
-27,-81,-4,30900,27283,38059,29479,31817,0
49,-42,-2,30377,27095,37860,29391,31849,0
13,-2,5,30377,26988,37940,29450,31656,0
50,8,-1,30347,26776,37940,29479,31913,0
9,-1,-7,30256,26829,37860,29568,31720,0
-2,13,4,30408,26802,37781,29391,31946,0
-5,-1,-1,30286,26723,37465,29627,31913,0
36,88,-14,30226,26513,37269,29450,31849,0
30,2,-6,30347,26409,37191,29391,32043,0
16,9,-1,30165,26566,37191,29479,31688,0
6,-5,-3,30105,26228,37114,29479,31849,0
28,-4,-2,30135,26124,37114,29450,31913,0
-7,9,-14,30195,25971,37075,29627,31720,0
21,-3,-7,29984,26022,36805,29627,31720,0
-5,-8,9,29955,25945,36728,29597,31785,0
-10,-18,7,29984,25945,36690,29597,31529,0
10,11,-6,29895,25843,36920,29627,31785,0
-1,7,1,30015,25920,36690,29568,31529,0
118,-1,-27,30135,25742,36690,29479,31849,0
44,1,-46,30075,25691,36614,29391,31370,0
-372,41,-134,30226,25691,36767,29984,30900,0
-125,250,-77,30317,25440,37701,30530,30015,0
-160,83,-73,30165,25540,38666,30994,29568,0
73,-148,10,30165,26776,39119,31370,29421,0
10,-171,114,30530,28301,39369,31465,29479,0
434,-276,312,33269,29568,39411,32369,31465,0
61,314,91,35272,30165,40173,33645,33714,0
153,-60,2,35492,29627,39747,33371,33783,0
95,10,-34,35236,29509,39874,33303,33542,0
-36,32,19,35127,29450,39452,33100,33474,0
-107,-81,18,34696,29158,39621,32832,33067,0
-36,-30,6,34447,29158,39244,32932,33168,0
-17,-10,2,34271,29100,39160,32666,33033,0
-63,-18,6,34095,28927,39244,32633,33236,0
-27,2,-13,33783,28869,38995,32599,33033,0
-24,-26,12,33852,28984,39160,32633,32932,0
-4,-19,13,33576,28754,39244,32699,33067,0
-37,-2,15,33508,28840,39077,32765,32966,0
-1,-22,-4,33371,28754,38995,32633,33067,0
9,-20,11,33269,28697,38995,32765,32832,0
32,4,-10,33303,28697,38748,32435,32932,0
-5,21,10,33168,28697,38830,32467,32866,0
-11,-36,0,33303,28527,38830,32599,32633,0
28,23,-18,33168,28583,38625,32500,32633,0
5,19,-12,33236,28498,38503,32435,32899,0
-25,9,10,33100,28442,38625,32467,32699,0
9,-22,0,33033,28442,38666,32533,32666,0
70,-53,0,33100,28442,38382,32699,32866,0
16,30,-13,32866,28245,38301,32633,32500,0
-24,-19,3,32932,28189,38503,32732,32633,0
29,11,-4,32765,28357,38544,32666,32832,0
0,8,-5,33033,28189,38422,32699,32566,0
-8,-13,-2,32799,28189,38382,32566,32500,0
-8,-5,-2,32966,28301,38260,32699,32533,0
12,-4,16,33033,28161,38260,32303,32500,0
-2,-4,9,32932,28161,38100,32369,32566,0
1,1,-8,32832,28301,38422,32500,32765,0
20,-2,7,32799,28245,38341,32402,32699,0
30,-12,-16,32832,28077,38059,32369,32533,0
48,-17,9,32799,28022,38019,32500,32799,0
57,28,-78,32666,28245,38059,32633,32765,0
-42,28,-28,32799,28105,38341,32369,32500,0
-17,-28,-5,32666,28189,38341,32369,32533,0
2,-5,14,32765,28161,38220,32369,32666,0
-7,4,8,32765,28133,38180,32533,32633,0
-14,-17,-8,32699,27966,38341,32566,32500,0
-12,63,74,32765,27939,38301,32500,32435,0
-8,-23,47,32633,28133,38180,32402,32435,0
34,-68,55,32500,28133,38180,32303,32699,0
4,-51,24,32435,28022,38220,32303,32732,0
-23,-60,27,32271,27939,38180,32205,32435,0
-14,-15,52,32435,28022,38140,32500,32566,0
53,43,100,32369,27800,38059,32271,32402,0
-14,-61,15,32303,27966,37980,32500,32500,0
43,60,45,32238,27994,38019,32271,32369,0
91,207,166,32140,27856,37860,32303,32500,0
101,1,135,32173,27911,38019,32500,32402,0
135,116,70,32303,27718,37701,32402,32435,0
166,121,77,32140,27856,37940,32402,32369,0
86,-11,39,31978,27691,37940,32303,32303,0
-36,-93,-54,32043,27773,37701,32435,32599,0
27,-75,-78,31849,27636,37701,32500,32369,0
-14,-68,-80,32043,27856,37622,32369,32566,0
-112,-28,-115,32108,27828,37860,32238,32566,0
-73,-3,-57,31913,27828,37504,32173,32303,0
8,-19,-24,31978,27691,37583,32435,32303,0
13,-1,-32,32108,27691,37860,32173,32369,0
-11,-40,-10,31978,27691,37741,32303,32173,0
-5,-18,20,31946,27800,37543,32173,32500,0
-16,27,-12,31720,27773,37741,32205,32500,0
-14,-17,-29,31881,27636,37622,32467,32369,0
-47,-18,-31,31656,27718,37662,32238,32533,0
-43,78,-73,31752,27663,37386,32173,32533,0
-37,31,-24,31370,27691,37308,32173,32666,0
-27,-26,19,30838,27581,37583,32043,32566,0
-52,-134,23,30776,27499,37426,32271,32173,0
-66,-222,12,30408,27691,37347,32369,32108,0
-309,-123,114,30045,27472,37347,32173,31752,0
-186,-127,77,29538,27337,37308,32402,31849,0
-33,-175,-5,28812,27148,37543,32075,31752,0
-132,-225,109,28414,27418,37386,32108,31497,0
-23,-12,49,28527,28022,37820,31849,31656,0
99,151,-13,28470,27911,37465,31946,31276,0
-2,36,49,28273,27636,37308,32010,31688,0
10,10,14,28697,27581,37386,32010,31593,0
-1,21,8,28442,27636,37075,31720,31465,0
22,-14,4,28583,27527,37114,31752,31785,0
23,18,-21,28527,27527,37114,31849,31529,0
-11,-1,8,28583,27581,36998,31978,31720,0
-12,35,-10,28612,27418,37075,31785,31688,0
10,32,-21,28812,27445,36882,31785,31688,0
36,-36,21,28955,27472,36920,31881,31978,0
32,-6,-8,28869,27391,36805,31849,31978,0
29,29,-53,28869,27337,36959,31656,32043,0
-3,-1,3,28955,27418,37075,31849,32010,0
2,-8,13,28812,27554,36805,31720,31720,0
-37,28,-23,28927,27472,36690,31849,31720,0
-4,46,-8,28869,27472,36998,31656,31656,0
-10,8,55,28812,27391,36959,31785,31688,0
-7,8,14,29042,27418,36728,31624,31720,0
-124,146,-63,28955,27337,36805,31752,31561,0
32,-4,-23,29042,27418,36767,31465,31656,0
6,-41,43,29071,27391,36576,31465,31656,0
-2,-42,3,29071,27418,36728,31752,31752,0
11,-16,3,29129,27364,36499,31624,31752,0
-23,-12,-6,29042,27202,36614,31465,31720,0
-1,14,-4,28955,27202,36805,31624,31785,0
0,14,-22,29042,27364,36767,31593,31561,0
8,-12,15,29042,27364,36767,31624,31624,0
17,-18,3,28984,27310,36690,31529,31497,0
-9,10,16,29042,27256,36462,31561,31656,0
3,-13,-17,29158,27364,36614,31529,31593,0
-15,4,-2,29100,27364,36767,31497,31529,0
0,-19,1,29071,27175,36462,31624,31817,0
5,5,6,29042,27337,36767,31529,31720,0
15,-9,-4,29071,27310,36767,31624,31497,0
-12,-19,24,29071,27283,36728,31688,31624,0
-6,-30,-21,29274,27256,36614,31434,31529,0
2,46,21,29274,27202,36614,31402,31593,0
31,27,88,29216,27202,36462,31370,31434,0
-1,7,19,29274,27175,36499,31370,31752,0
-15,56,20,29071,27175,36690,31370,31465,0
9,-71,-12,29042,27337,36728,31624,31656,0
-3,-17,14,29158,27148,36690,31434,31656,0
4,27,-62,29245,27256,36690,31434,31752,0
-10,29,-9,29187,27148,36424,31339,31465,0
34,-2,-16,29509,27256,36462,31276,31752,0
12,58,13,29274,27175,36728,31593,31497,0
8,-28,-2,29627,27256,36652,31339,31465,0
20,24,-1,29391,27283,36386,31465,31465,0
14,16,19,29509,27202,36348,31402,31688,0
-12,6,-14,29304,27148,36499,31339,31465,0
-6,6,-16,29391,27202,36348,31339,31720,0
-26,-29,-11,29421,27148,36614,31561,31561,0
10,-2,-17,29391,27095,36614,31370,31370,0
11,-28,15,29391,27256,36614,31339,31370,0
-2,9,-3,29245,27068,36614,31213,31434,0
-21,11,9,29333,27256,36538,31244,31402,0
-4,15,15,29362,27202,36614,31370,31402,0
20,11,-26,29391,27175,36614,31529,31434,0
8,14,0,29362,27041,36652,31497,31593,0
-5,-34,-17,29333,27256,36310,31244,31624,0
1,27,-11,29333,27256,36310,31497,31624,0
-4,-3,5,29333,27175,36538,31497,31497,0
12,9,19,29216,27095,36235,31339,31529,0
29,-36,28,29187,27095,36272,31213,31339,0
-1,23,7,29158,27095,36272,31244,31339,0
-10,-4,24,29158,27202,36499,31276,31497,0
3,-10,-11,29304,27202,36160,31465,31339,0
-19,-22,-11,29158,27175,36538,31150,31593,0
-14,-47,-16,28754,27041,36197,31402,31624,0
11,45,-16,28329,27202,36160,31370,31434,0
19,49,-10,28273,27202,36386,31339,31656,0
73,23,-20,28022,27148,36310,31056,31339,0
44,-20,14,27911,27148,35749,31150,31402,0
68,3,-28,27856,27041,35787,31465,31087,0
59,95,-29,27828,27041,35418,31119,31213,0
67,100,-3,28049,26988,35272,31119,31119,0
11,125,14,28329,26961,35272,31276,31213,0
30,66,18,28612,27041,35382,30745,31244,0
-3,6,5,28470,27068,35418,30994,30900,0
-21,49,8,28442,26882,35163,30715,31276,0
11,26,-6,28527,26908,35418,30962,30962,0
9,8,-5,28527,27041,35309,30715,31025,0
-12,44,0,28357,26908,35272,30715,31213,0
8,-24,16,28385,26882,35236,30838,31087,0
-1,5,1,28414,26882,35345,30653,31213,0
-12,4,-4,28357,26988,35199,30653,30838,0
6,-12,3,28470,27122,35236,30591,31150,0
0,2,-4,28301,26961,35492,30653,30838,0
-10,-1,-2,28357,26908,35272,30622,31150,0
-16,-2,4,28245,26855,35199,30591,30838,0
9,-17,-3,28189,26935,35163,30900,31056,0
9,-27,4,28077,26829,35418,30869,31119,0
4,11,-3,28161,26776,35272,30838,31087,0
-2,-7,-7,28133,26961,35455,30653,30715,0
2,6,-4,28133,26961,35309,30653,30994,0
-16,1,1,28022,26988,35309,30591,30776,0
2,-12,4,28077,26961,35418,30653,31087,0
-8,-14,3,28133,26935,35418,30807,30994,0
0,2,11,28161,26935,35272,30869,30807,0
33,-13,-8,28189,26935,35309,30653,30962,0
-5,7,-19,28217,26749,35455,30499,30931,0
-33,17,-3,28077,26749,35418,30745,30745,0
8,-3,10,28161,26935,35309,30838,30776,0
-16,45,11,28161,26749,35163,30715,30776,0
52,18,8,28161,26882,35272,30838,30838,0
12,-24,-10,28245,26961,35163,30591,30962,0
69,-67,-49,28217,26776,35236,30807,30838,0
2,25,-24,28105,26723,35163,30622,30745,0
28,4,-21,28161,26855,35309,30499,30715,0
4,-17,3,27966,26882,35199,30715,30776,0
3,-32,12,28077,26855,35309,30807,30838,0
-24,7,20,28189,26829,35272,30776,30776,0
-7,-6,13,28133,26723,35163,30622,30838,0
26,56,-14,28022,26776,35127,30776,30715,0
52,-63,-10,28133,26829,35418,30591,30962,0
26,19,3,28022,26749,35272,30745,30838,0
55,-49,-2,27966,26829,35163,30745,30838,0
21,-18,-3,28133,26829,35418,30499,30715,0
16,-12,4,28133,26776,35382,30591,30653,0
14,-2,-11,28022,26776,35127,30591,30838,0
-20,-18,-7,27994,26776,35163,30684,30715,0
26,-19,-17,28022,26802,35272,30469,30962,0
-10,3,-12,27966,26855,35309,30469,30838,0
-23,-30,8,28161,26855,35127,30591,30838,0
-24,28,-30,27939,26723,35127,30530,30745,0
-78,-31,9,28105,26855,35345,30591,30807,0
5,-13,12,28105,26855,35382,30499,30622,0
8,0,-1,28105,26670,35127,30715,30900,0
11,-3,7,28022,26829,35199,30715,30684,0
5,-8,4,28077,26829,35272,30715,30776,0
6,14,-2,28133,26697,35127,30653,30838,0
4,-5,-5,28105,26644,35272,30591,30900,0
15,-3,10,27939,26723,35127,30622,30962,0
2,13,4,28077,26829,35309,30715,30962,0
-4,17,1,27966,26776,35127,30684,30653,0
1,-5,0,28077,26776,35309,30653,30715,0
2,15,-8,27939,26802,35091,30591,30715,0
-21,27,4,27939,26670,35309,30591,30715,0
-13,-3,14,27939,26776,35236,30684,30745,0
5,9,-16,27966,26776,35127,30438,30653,0
10,-4,4,28133,26829,35309,30591,30776,0
13,-12,-6,27939,26670,35127,30469,30807,0
20,15,-5,28077,26829,35127,30684,30715,0
16,-21,-5,28133,26644,35309,30591,30653,0
-1,24,-9,28077,26776,35345,30469,30838,0
-10,-7,9,28049,26749,35163,30591,30591,0
-11,-4,-2,27994,26670,35199,30653,30715,0
-13,23,4,28022,26776,35309,30653,30838,0
-6,-1,-1,27966,26802,35309,30591,30776,0
0,12,4,27966,26829,35127,30377,30776,0
-16,15,2,27911,26829,35055,30653,30838,0
39,-34,-28,28022,26829,35309,30530,30715,0
-34,40,-5,27939,26749,35127,30622,30931,0
0,36,3,28049,26670,35236,30408,30776,0
12,21,-12,27939,26670,35309,30469,30776,0
2,-13,5,28049,26829,35127,30530,30591,0
-1,3,0,27911,26829,35199,30561,30745,0
-8,1,-9,28022,26802,35127,30377,30715,0
-3,15,10,28049,26670,35272,30469,30622,0
-19,0,13,27939,26644,35272,30408,30962,0
-2,1,3,27939,26644,35127,30377,30838,0
22,9,-3,28022,26644,35199,30530,30653,0
-4,15,10,28022,26618,35199,30591,30653,0
1,-4,4,28022,26829,35272,30408,30715,0
-13,9,1,28049,26749,35127,30530,30745,0
11,7,-2,27911,26723,35018,30408,30653,0
-5,16,-5,27856,26644,35127,30591,30591,0
-28,-9,-5,27911,26749,35236,30591,30776,0
-7,-7,-2,27911,26829,34982,30530,30900,0
-12,-58,-3,27856,26776,35272,30347,30653,0
-9,-96,22,27939,26618,35272,30653,30869,0
-46,-147,12,28105,26723,35018,30469,30838,0
-117,-187,0,28022,26723,34982,30499,30900,0
-79,-143,37,28133,26618,35018,30591,30653,0
-40,-169,46,28133,26670,35018,30408,30653,0
35,-125,32,28161,26776,35055,30591,30838,0
45,-9,33,28022,26618,35127,30408,30715,0
54,-26,42,28077,26618,35199,30469,30715,0
60,8,-18,28133,26670,35199,30469,30838,0
-8,66,-16,28049,26723,35272,30469,30653,0
141,190,-70,28049,26723,35091,30591,30838,0
121,210,-85,28133,26723,35055,30347,30499,0
76,234,-68,28049,26723,35163,30347,30622,0
130,227,-97,28077,26723,35163,30591,30745,0
115,92,-65,28161,26566,35018,30530,30591,0
26,-3,8,28049,26618,35127,30408,30745,0
-25,-10,-38,27994,26749,34982,30347,30745,0
-65,-85,29,28049,26723,35091,30469,30684,0
-73,-49,29,28133,26723,34982,30591,30745,0
-57,-20,31,28133,26618,35055,30622,30807,0
-24,-19,8,28133,26566,34982,30438,30591,0
24,24,7,27966,26697,34982,30347,30838,0
13,-22,-14,28049,26644,34910,30591,30838,0
25,-4,-9,28077,26618,34946,30530,30715,0
8,-5,-5,27966,26776,35236,30591,30591,0
14,6,-11,27966,26566,35018,30591,30499,0
-8,29,-7,28022,26618,35127,30499,30561,0
4,20,-4,28022,26618,34982,30347,30591,0
6,-4,22,27966,26644,35127,30317,30776,0
-2,-1,-7,28077,26723,35091,30317,30715,0
-6,-12,3,28022,26697,35199,30377,30530,0
6,-14,1,28049,26723,35127,30347,30807,0
45,-16,1,28049,26723,35163,30469,30807,0
16,13,1,28077,26749,35127,30347,30745,0
1,-15,5,28161,26670,34910,30256,30530,0
-8,11,16,28022,26723,34874,30530,30776,0
6,-10,-9,28161,26723,34946,30530,30715,0
20,15,-10,28049,26618,35127,30530,30715,0
3,-19,-6,27939,26566,34982,30469,30653,0
1,11,-19,27939,26697,34839,30530,30807,0
1,27,-19,28077,26644,35018,30469,30745,0
-15,12,6,27939,26618,35127,30469,30715,0
-20,2,12,28161,26539,34910,30347,30622,0
-5,0,-1,27939,26592,34946,30469,30684,0
-4,15,-5,28049,26566,35091,30530,30745,0
-7,-3,-1,28133,26618,34946,30256,30715,0
-13,18,2,28022,26592,34910,30499,30438,0
-22,9,5,28077,26566,35127,30561,30469,0
-28,-3,12,27939,26566,35163,30530,30653,0
-19,6,7,27939,26566,34982,30408,30469,0
-23,1,-10,28105,26566,35055,30530,30469,0
7,-2,-6,28105,26566,34910,30377,30745,0
-33,-3,5,27966,26723,34874,30438,30715,0
-7,8,3,27966,26513,34982,30256,30561,0
9,2,-3,28133,26566,34839,30408,30469,0
-11,2,0,27994,26723,34982,30499,30715,0
-30,7,9,27966,26644,34839,30256,30745,0
-22,9,7,27939,26670,34839,30256,30715,0
-6,6,9,28133,26644,34839,30226,30530,0
5,-7,-5,28049,26644,35163,30377,30499,0
61,13,-6,28022,26566,35127,30347,30745,0
-19,-11,3,28105,26513,35055,30256,30499,0
-21,14,-4,27911,26513,34982,30377,30776,0
-8,11,0,27939,26566,35018,30499,30684,0
13,-10,-3,27939,26566,35127,30408,30469,0
14,-9,-5,27883,26592,35127,30226,30499,0
-26,-21,8,27911,26539,35055,30317,30561,0
16,-30,24,27856,26566,34839,30256,30469,0
8,-1,-12,27939,26644,34803,30499,30684,0
10,7,-13,27856,26697,34839,30317,30684,0
5,-7,11,27856,26487,34982,30653,30807,0
1,11,-3,27911,26513,34839,30469,30438,0
-9,4,10,28022,26618,34910,30438,30745,0
-7,3,7,27883,26513,35055,30469,30745,0
8,-15,0,27911,26644,35018,30469,30653,0
1,11,23,27994,26670,34839,30226,30438,0
10,-79,-92,27966,26513,35018,30408,30469,0
-55,107,142,28049,26644,34839,30499,30438,0
62,16,-31,27911,26566,35091,30256,30653,0
20,4,-13,27939,26644,34910,30286,30469,0
-36,-66,-40,27911,26644,34839,30408,30715,0
-11,31,-52,27911,26618,34839,30256,30469,0
25,22,-36,27828,26539,34910,30408,30499,0
27,-43,-11,27856,26435,34839,30195,30622,0
13,-6,14,27994,26670,35018,30347,30530,0
7,-16,13,28022,26618,34767,30408,30715,0
15,-33,9,27828,26618,34982,30165,30715,0
7,36,-5,28022,26592,34982,30469,30499,0
10,11,-14,23777,16173,13538,13081,12254,1
-5,-15,-3,23870,16206,13566,13095,12215,1
2,-9,-20,23824,16173,13552,13081,12228,1
-9,9,12,23800,16093,13566,13081,12267,1
-15,-11,6,23777,16109,13622,13081,12202,1
4,-7,-15,23847,16173,13566,13177,12228,1
28,23,-12,23847,16206,13566,13177,12267,1
12,-24,-21,23754,16109,13650,13191,12176,1
6,18,25,23847,16157,13594,13191,12228,1
0,-3,-1,23754,16189,13622,13177,12280,1
3,-3,7,23847,16173,13580,13109,12202,1
4,5,0,23754,16109,13566,13095,12215,1
-13,3,2,23754,16093,13622,13095,12241,1
13,14,14,23707,16173,13636,13136,12267,1
-14,-11,3,23684,16173,13636,13095,12228,1
-3,72,41,23684,16093,13665,13122,12254,1
-359,309,711,23754,16157,13566,13122,12320,1
-205,258,515,23661,16141,13650,13095,12280,1
-106,156,171,23499,16125,13566,13068,12333,1
-83,47,63,23431,16125,13608,13177,12320,1
-36,26,10,23522,16222,13538,13081,12346,1
0,3,-55,23454,16125,13622,13068,12215,1
11,-45,-188,23499,16157,13622,13068,12163,1
-3,-27,-84,23569,16093,13594,13136,12112,1
18,15,-16,23592,16141,13594,13068,12124,1
-32,2,-18,23592,16109,13594,13081,12112,1
49,-5,-62,23638,16109,13566,13177,12086,1
8,0,4,23569,16093,13608,13109,12060,1
-62,77,139,23522,16125,13566,13177,12112,1
-569,479,873,23499,16173,13538,13191,12021,1
-80,221,331,23408,16093,13594,13095,11957,1
-77,18,46,23431,16109,13594,13150,11906,1
29,149,46,23477,16093,13524,13122,11944,1
74,236,-37,23522,16125,13622,13054,11957,1
112,43,-46,23477,16173,13665,13027,11957,1
43,179,-153,23339,16109,13679,13013,11932,1
-22,-51,-44,23431,16157,13622,13027,11868,1
5,-11,-28,23248,16173,13863,13027,11932,1
-17,-72,-97,23271,16157,13906,12999,11855,1
37,-47,-69,23385,16076,13921,13013,11906,1
-7,-6,0,23294,16109,13892,13068,11906,1
-58,-49,-2,23339,16157,13906,13027,11817,1
-37,-64,-23,23431,16157,14021,13027,11906,1
53,-6,-16,23569,16157,13978,13068,11855,1
2,14,2,23661,16093,13964,13013,11868,1
-20,-19,-2,23684,16173,13992,12999,11817,1
15,9,-2,23638,16125,13906,13013,11855,1
10,-7,-32,23522,16109,13935,13013,11893,1
15,-8,-57,23522,16109,13849,13095,11792,1
49,-6,-106,23499,16157,13863,13013,11817,1
0,-23,-20,23569,16157,13835,13109,11855,1
-24,-5,-17,23454,16173,13863,13040,11804,1
-2,-25,-15,23454,16093,13806,13027,11868,1
-5,-27,-20,23454,16157,13792,13122,11906,1
-17,-13,-3,23477,16157,13792,13027,11842,1
-1,-4,10,23431,16157,13679,13122,11868,1
7,-55,-50,23477,16093,13721,13068,11893,1
18,-7,-20,23477,16125,13735,13081,11817,1
6,-22,-19,23499,16125,13679,13040,11855,1
19,-33,-35,23431,16189,13735,13068,11804,1
9,-2,21,23477,16157,13679,13109,11779,1
-6,-3,-34,23454,16173,13721,13095,11817,1
3,-47,77,23522,16109,13665,13122,11817,1
33,11,-24,23477,16173,13679,13068,11855,1
-19,-4,5,23522,16125,13707,13122,11817,1
12,10,-1,23499,16093,13749,13122,11804,1
-19,0,-8,23477,16093,13679,13136,11868,1
-1,5,33,23385,16093,13693,13122,11804,1
17,4,-9,23454,16109,13749,13027,11804,1
9,13,5,23477,16109,13693,13027,11855,1
-4,-19,8,23385,16222,13679,13122,11830,1
12,4,-9,23477,16109,13735,13122,11792,1
-8,-2,-11,23431,16093,13650,13054,11779,1
10,10,6,23362,16173,13721,13122,11868,1
2,-13,-6,23385,16093,13650,13095,11868,1
4,-7,-15,23294,16109,13636,13109,11779,1
10,10,-36,23294,16173,13650,13013,11792,1
4,8,3,23431,16109,13721,13013,11881,1
20,-2,-12,23385,16109,13665,13040,11804,1
0,7,-18,23431,16109,13693,13068,11804,1
41,-4,-21,23431,16173,13679,13122,11817,1
99,6,38,23431,16157,13679,12999,11830,1
224,-50,-104,23569,16157,13622,12959,12009,1
609,-622,-650,23964,16157,13679,13040,12320,1
741,-593,-1091,24702,16173,13482,12905,12176,1
328,-282,-570,25192,16352,13398,12905,12099,1
309,-97,-402,25365,16516,13301,12905,12124,1
1293,-229,-1674,25793,16549,13246,12905,12060,1
2373,-139,-2429,26935,16565,13343,12905,12163,1
660,109,-981,27554,16882,13343,12878,12086,1
104,-55,-260,27391,16882,13510,12810,12112,1
170,19,-241,27256,16949,13679,12810,12073,1
-29,-56,-41,27148,17634,13921,12905,12073,1
63,-118,-142,26202,20275,14621,12864,12073,1
127,-123,-185,25490,21395,15119,12864,12060,1
104,-84,-61,24995,21882,15584,12891,12124,1
51,11,-55,25068,21989,15584,12972,12009,1
0,-50,-31,25142,22401,15773,12999,12021,1
-46,-72,-1,24799,22118,15964,12959,12124,1
-37,-24,-3,24751,21903,16028,12972,12124,1
-2,6,3,24727,21839,15980,12999,12112,1
-110,-31,57,24606,21584,15805,13027,12137,1
-106,-41,36,24582,21584,15837,12959,12073,1
-741,-55,702,24775,21416,15726,12918,12073,1
-258,65,263,24824,21416,15741,13013,12073,1
56,97,-37,24995,21416,15710,13013,11983,1
-19,-21,-21,25142,21416,15600,12986,12047,1
-37,-6,37,25490,21521,15678,13027,12086,1
-26,16,14,25390,21500,15663,12918,12086,1
-11,-15,7,25793,21375,15647,13013,12009,1
-20,8,1,25616,21479,15584,12999,12009,1
-7,-7,-26,25691,21458,15647,12932,11996,1
-16,12,8,26124,21437,15568,12986,12073,1
-5,-23,4,26513,21500,15584,13013,12009,1
-14,-10,-7,26305,21500,15584,13013,12009,1
10,-23,-15,26228,21458,15553,13027,11983,1
-2,4,-56,26176,21395,15553,12959,12034,1
-2,-28,5,26202,21416,15537,13027,12021,1
-11,-9,-12,26461,21542,15521,13040,12060,1
0,-4,17,28414,22096,15553,12959,12009,1
-3,-19,-3,28812,22335,15506,12959,12009,1
-12,-9,-8,28840,22226,15412,13068,11970,1
19,3,-2,28726,22226,15521,12972,12009,1
16,12,-19,28640,22140,15521,12972,12073,1
14,22,9,28329,22075,15490,13068,12047,1
6,-11,-15,28301,21924,15537,13013,12060,1
0,6,-9,28133,21967,15475,13013,11970,1
-20,-9,-7,27911,21903,15584,12959,11983,1
4,4,3,28049,21967,15521,12959,12034,1
19,52,-24,27883,21882,15537,13068,12060,1
17,-19,17,27939,21989,15506,12959,12009,1
7,6,-3,28301,21882,15584,13068,12060,1
22,32,4,28189,21882,15490,12959,12034,1
19,48,-3,28498,22053,15521,13040,12060,1
-13,-16,-12,28498,21989,15568,12972,12060,1
29,3,-5,28442,21967,15537,13027,11983,1
-20,-8,11,28105,21989,15663,13068,12047,1
68,6,-17,28022,21818,15615,13040,12009,1
-46,-43,14,27911,21733,15537,12945,12073,1
-40,-21,-9,27828,21733,15412,12959,12021,1
43,-15,17,27966,21733,15506,13013,11957,1
92,-14,12,27939,21627,15443,13027,11983,1
59,0,-20,27773,21627,15490,13054,12060,1
75,-36,-15,27966,21669,15397,13013,12034,1
575,24,-263,28105,21627,15397,12986,12060,1
587,-52,-334,28077,21627,15475,13095,12851,1
1009,-180,-832,28414,21584,15319,13357,13580,1
897,-18,-717,28245,21437,15150,13749,13935,1
410,128,-354,28022,21627,15119,13806,13978,1
-59,51,-115,27609,21521,15135,13849,13707,1
-64,-56,-88,27202,21458,15119,13849,13636,1
20,-54,-87,27068,21521,15211,13735,13679,1
-18,-11,-4,26618,21395,15104,13835,13622,1
-10,-34,-29,25691,21479,15119,13764,13679,1
65,12,-86,25490,21416,15211,13735,13679,1
-35,-35,-16,25291,21354,15196,13679,13538,1
20,31,-45,25216,21395,15273,13693,13566,1
120,-31,-101,25142,21395,15211,13693,13650,1
169,29,-133,25291,21479,15181,13792,13580,1
227,-11,-212,25216,21375,15273,13693,13622,1
271,-74,-238,25093,21395,15273,13778,13552,1
283,-1,-255,24970,21395,15227,13679,13468,1
274,-51,-243,24751,21479,15273,13792,13566,1
204,-49,-173,24630,21500,15304,13735,13510,1
157,-11,-137,24438,21395,15196,13721,13468,1
79,-34,-135,24223,21395,15350,13636,13510,1
-15,-28,-40,23987,21458,15304,13735,13524,1
29,-47,-23,23917,21416,15428,13764,13524,1
16,1,-28,23894,21500,15335,13735,13454,1
-4,66,-21,23917,21395,15288,13665,13510,1
-113,55,-28,23661,21416,15242,13735,13454,1
-59,69,0,23522,21312,15196,13792,13454,1
-39,131,-1,23777,21146,15165,13792,13371,1
-36,79,-13,23894,20940,15242,13650,13454,1
-40,15,-19,24366,20656,15181,13764,13343,1
-13,70,-22,25019,20395,15104,13806,13426,1
-112,232,38,25142,20315,15058,13806,13287,1
-29,27,1,25316,20058,15058,13906,13287,1
-16,0,-1,25316,19689,15089,13849,13246,1
-7,14,-28,25490,19650,15104,13792,13287,1
6,-16,3,25316,19612,15028,13935,13232,1
-25,2,12,25415,19382,15089,13921,13260,1
-50,-6,-22,25291,19439,14982,13906,13191,1
-30,18,10,25142,19401,14997,13792,13177,1
-26,-34,-32,24995,19306,15058,13921,13122,1
31,-9,-31,24897,19249,15089,13821,13054,1
17,3,-13,24799,19268,15119,13921,13013,1
38,-14,-37,24678,19155,15104,13778,13027,1
-6,-8,15,24702,19118,14997,13806,13068,1
-28,-10,-10,24630,19099,15074,13906,13013,1
10,-12,-4,24678,19080,15119,13849,12959,1
-15,-13,1,24775,19099,15028,13821,13013,1
6,-12,-4,24727,19118,15043,13806,12918,1
12,-9,-22,24606,19043,15058,13849,12999,1
-12,-14,-3,24630,19155,15104,13906,12905,1
6,-1,-3,24751,19024,15135,13906,12959,1
42,23,-13,24751,19024,15043,13764,12878,1
20,-8,19,24558,19099,15104,13764,12999,1
-12,-30,14,24702,19024,15043,13806,13013,1
61,22,-14,24606,19080,15089,13707,12851,1
-8,-5,42,24486,19099,14952,13287,12703,1
-16,7,30,24438,19080,14681,13068,12649,1
15,-30,-47,24438,19024,14093,12972,12716,1
-13,21,10,24438,19024,13622,12783,12703,1
-11,-134,14,24342,19043,13343,12743,12716,1
22,-30,-20,24247,18949,13384,12716,12570,1
69,16,-7,24247,18931,13218,12743,12517,1
72,35,-16,24414,18968,13232,12583,12424,1
6,-7,12,24462,18987,13027,12649,12372,1
29,-23,-32,24414,18931,13068,12583,12267,1
49,1,-11,24414,18968,13122,12530,12215,1
3,5,-22,24414,18894,12986,12490,12176,1
2,9,-4,24318,19005,12959,12490,12202,1
-26,10,-12,24271,18931,12945,12477,12163,1
-27,-49,15,24318,18894,12918,12424,12112,1
30,-46,11,24271,18875,12959,12424,12086,1
68,20,-11,24152,18912,12972,12451,12137,1
-7,5,-25,24247,18894,13081,12556,12163,1
-40,-29,-18,24129,18875,13027,12596,12112,1
-66,4,-6,24034,18857,13122,12636,12202,1
-3,-14,-12,24034,18820,13027,12583,12086,1
5,32,0,24034,18801,13122,12530,12137,1
5,8,-6,23870,18783,13109,12636,12124,1
-4,-26,33,23754,18508,13109,12690,12320,1
132,113,-11,23754,18526,13027,12649,12583,1
0,-9,-7,23592,18471,13081,12649,12583,1
-114,54,-45,23730,18599,13027,12610,12451,1
74,8,14,23271,18581,13027,12610,12411,1
233,-54,-122,23022,18453,13191,12703,12477,1
215,85,22,22444,18236,13329,12878,12504,1
-120,65,-52,21606,18057,13510,12959,12438,1
10,-31,-105,21354,18022,13693,12918,12504,1
64,41,-134,21967,17792,13749,13013,12610,1
73,261,-205,22205,17774,13964,13218,12703,1
-9,186,-215,22313,17845,13978,13246,12743,1
-67,135,-86,22248,17634,14108,13371,12703,1
-294,-145,660,21754,17461,14326,13371,12810,1
-88,127,-89,21818,17426,14370,13454,12837,1
-26,-38,124,21648,17547,14326,13315,12824,1
-291,-121,-77,20981,17495,13935,13122,12504,1
166,295,-124,20676,17669,13205,12743,12490,1
203,117,-41,20636,17792,13191,12596,12346,1
29,69,-67,20636,17739,13205,12477,12073,1
81,-33,-181,20899,17722,13122,12228,11766,1
143,53,14,20920,17739,13122,12215,11590,1
141,115,10,21125,17704,13232,12189,11565,1
45,-7,-58,20961,17704,13191,12228,11653,1
48,122,-43,20981,17774,13205,12320,11615,1
-20,23,-162,21229,17704,13150,12189,11678,1
-44,5,-65,21395,17739,13136,12267,11716,1
85,-163,151,21312,17652,13177,12163,11665,1
24,-64,69,21375,17652,13287,12267,11628,1
73,28,-35,21458,17669,13287,12189,11703,1
7,34,33,21479,17600,13315,12477,11703,1
-10,-62,48,21521,17704,13510,13636,11919,1
-25,-11,-22,21458,17722,13792,14050,11868,1
8,36,-8,21584,17722,13849,14326,12112,1
-33,8,9,21458,17722,13935,14151,12124,1
-38,21,-48,21479,17704,13964,14021,12021,1
16,11,-28,21312,17704,14036,13468,11919,1
-25,-75,34,21375,17722,14195,13301,11855,1
-37,20,22,21333,17704,14166,13232,11893,1
23,-11,-40,21395,17722,14151,13191,11868,1
-8,19,20,21208,17774,14195,13191,11855,1
3,35,-102,21229,17704,14036,13136,11855,1
24,-42,16,21229,17652,13906,13068,11728,1
23,-12,-64,21105,17652,13821,13054,11779,1
7,-70,-10,21146,17669,13679,13027,11817,1
18,-5,50,21064,17809,13566,12986,11716,1
190,144,-32,21043,17792,13260,12783,11868,1
5,-70,-31,21167,17774,12945,12596,11855,1
62,53,34,21208,17704,12959,12438,11855,1
-21,-40,-63,21167,17739,12918,12424,11855,1
-3,-12,11,21043,17669,12891,12530,11842,1
-16,-107,28,21167,17652,12851,12490,11804,1
5,-228,153,21146,17739,12810,12451,11804,1
90,-117,75,21375,17809,12810,12451,11804,1
-1,12,12,22335,18672,12905,12596,11957,1
-56,-62,-51,22532,18949,13027,12824,11983,1
3,30,36,22466,18783,12972,12783,12163,1
-114,-39,1,22444,18709,12959,12797,12215,1
-100,28,-9,22401,18635,12959,12837,12047,1
-356,-223,-326,22161,18617,13040,12743,12034,1
-160,-9,-253,22270,18709,13040,12770,12009,1
98,53,-86,22270,18709,12851,12797,12034,1
-172,-166,31,22335,18635,12918,12690,12021,1
-48,163,-94,22313,18635,12878,12690,11957,1
-98,-24,88,22379,18709,12783,12703,12021,1
-78,-110,-92,22423,18635,12851,12756,12009,1
13,-121,206,22510,18599,12783,12703,11919,1
3,-106,50,22379,18562,12864,12663,12021,1
26,-19,38,22488,18599,12905,12649,12021,1
16,-2,67,22379,18526,12905,12756,12009,1
-65,26,10,22423,18581,12824,12743,11932,1
-78,-15,3,22313,18526,12824,12663,12009,1
-36,1,-18,22510,18581,12837,12730,11970,1
-86,39,27,22599,18562,12905,12690,11970,1
-41,54,24,22621,18635,12864,12743,12009,1
-62,-38,16,22798,18617,12851,12730,12021,1
-39,39,12,22754,18635,12824,12636,12060,1
26,-26,-17,22599,18654,12797,12716,11932,1
61,-123,-6,22887,18654,12851,12743,11932,1
28,-56,3,22798,18672,12756,12703,12009,1
73,-13,2,22955,18709,12810,12649,12021,1
37,-9,-6,22910,18857,12824,12636,11970,1
65,47,-28,23362,19458,12851,12703,11919,1
31,83,-27,23477,19746,12864,12636,11842,1
2,3,-30,23477,19766,12932,12649,11855,1
20,-7,14,23431,19535,12932,12756,11881,1
47,16,-12,23800,19669,12851,12730,11868,1
36,5,2,23569,19554,12851,12690,11855,1
-35,2,5,23294,19554,12905,12610,11919,1
-610,41,547,23203,19573,12905,12716,11919,1
0,-26,-14,23294,19458,12918,12663,11855,1
-9,-45,-23,23225,19497,12837,12610,11855,1
-64,23,58,23180,19420,12891,12663,11817,1
-226,24,153,23203,19401,12810,12756,11817,1
-8,21,86,23248,19458,12824,12716,11804,1
-13,-13,5,23135,19477,12851,12636,11817,1
23,4,-28,23225,19382,12932,12649,11957,1
3,9,7,23112,19458,12824,12743,11842,1
27,23,-7,23203,19401,12891,12623,11868,1
52,49,30,23316,19344,12972,12743,11906,1
-42,6,49,23248,19439,12918,12649,11830,1
-212,48,249,23135,19477,12905,12676,11970,1
-52,-20,-15,23090,19382,12905,12636,11919,1
23,-15,-14,23135,19382,12972,12636,11919,1
-32,-8,-19,23090,19420,13013,12743,11957,1
-148,-37,95,23203,19401,13013,12676,11881,1
-431,26,484,23499,19306,13013,12743,11855,1
-75,-27,60,23569,19325,13013,12716,11919,1
10,-24,-7,23615,19268,13013,12690,11868,1
-33,-3,-21,23569,19382,13013,12703,11868,1
-2,24,13,23638,19249,13013,12610,11906,1
-73,-11,6,23294,19024,13013,12649,11868,1
-20,-21,25,23362,18931,13232,12797,11944,1
-92,-4,-3,23477,19061,13343,12797,11957,1
-48,-26,3,23477,19080,13440,12716,11957,1
-77,16,44,23477,19024,13580,12703,11906,1
-108,9,9,23615,19005,13622,12783,11919,1
-85,-3,53,23870,19043,13622,12810,11906,1
-69,-8,42,23847,18875,13650,12743,11906,1
-29,3,53,23894,18949,13863,12756,11906,1
-328,53,199,24366,18820,13964,12959,11868,1
-162,-22,75,24630,18581,13992,12918,11957,1
-35,12,-6,26566,18691,13992,12959,11932,1
-21,27,3,28161,18562,14151,13027,11957,1
-28,-37,12,26908,18508,14050,13013,11970,1
-357,-113,279,26228,18544,14137,13068,11957,1
-12,19,41,26124,18453,14108,13013,12009,1
60,25,6,26202,18489,14166,13054,11906,1
-35,-25,-34,26099,18399,14151,13040,11957,1
100,5,-95,26150,18435,14108,12959,11932,1
144,57,23,26228,18562,14021,12905,11957,1
220,157,-13,26644,18453,13496,12610,11881,1
151,20,-47,26566,18362,13329,12385,11817,1
102,-3,-46,26566,18362,13260,12306,11728,1
27,-12,-16,26513,18236,13136,12163,11653,1
52,18,-28,26435,18272,13177,12215,11628,1
38,58,-28,26487,18236,13122,12099,11665,1
-27,31,-6,26409,18218,13232,12163,11603,1
-1,-28,9,26357,18200,13191,12137,11653,1
34,2,-22,26357,18200,13218,12112,11553,1
38,-6,-14,26228,18164,13232,12124,11665,1
45,3,-30,26202,18057,13205,12124,11615,1
-23,-19,-14,26202,18147,13205,12137,11565,1
-27,0,20,26124,18129,13177,12163,11565,1
-7,-7,12,26228,18057,13205,12086,11540,1
-4,-13,-5,26124,18129,13191,12112,11653,1
-20,-2,5,26202,18129,13205,12060,11565,1
-23,10,24,26150,18057,13191,12137,11578,1
-5,-13,4,26202,18075,13136,12163,11553,1
2,17,1,26124,18129,13232,12163,11603,1
4,5,-7,26124,18039,13136,12112,11553,1
-7,-3,-11,26124,18129,13163,12163,11653,1
28,-7,-11,26150,18057,13163,12112,11628,1
69,-2,-13,26150,18093,13177,12099,11628,1
38,-33,-7,26124,18075,13232,12060,11615,1
29,17,11,26202,18111,13163,12137,11665,1
15,7,15,26124,18057,13177,12112,11653,1
-20,2,11,26202,18129,13177,12176,11565,1
-12,18,-4,26099,18129,13232,12112,11653,1
15,20,-6,26022,18129,13315,12163,11603,1
-16,-12,-13,25996,18147,13398,12124,11703,1
-24,-8,20,26099,18129,13357,12124,11603,1
-10,2,-14,25894,18057,13301,12112,11678,1
-2,-10,3,26022,18093,13357,12099,11628,1
-47,-6,26,25945,18129,13343,12112,11703,1
10,3,-20,25920,18039,13246,12215,11653,1
-35,-8,-11,25843,18075,13301,12124,11628,1
-37,-7,4,25742,18147,13329,12241,11665,1
24,21,13,25818,18129,13315,12163,11703,1
6,-1,-4,25742,18129,13343,12176,11628,1
-6,19,-2,25793,18075,13287,12137,11703,1
-1957,40,1520,25869,18004,13274,12137,11716,1
-4486,381,4088,28726,18004,13301,12241,11728,1
-2534,474,2092,27256,17845,13246,12346,11906,1
-1143,537,656,26409,17722,13150,12333,11881,1
-2169,541,1293,25540,17669,13095,12333,11855,1
-665,299,416,24247,17582,13136,12267,11754,1
92,-66,42,24058,17600,13150,12215,11603,1
127,-47,-21,23362,17565,13232,12176,11665,1
242,-153,-37,21584,17933,13232,12163,11678,1
74,-24,-49,21250,18236,13357,12163,11653,1
120,23,-8,21479,18581,13482,12176,11678,1
87,14,-2,21818,19155,13524,12137,11653,1
-17,-23,-26,21903,19382,13679,12150,11628,1
-27,-5,36,22226,19363,13693,12215,11665,1
-23,-14,-6,22313,19268,13665,12215,11653,1
7,-9,-4,22357,19231,13622,12176,11678,1
-10,-4,-23,22335,19136,13650,12163,11653,1
36,-5,-5,22335,19118,13707,12176,11691,1
40,-16,-33,22140,19118,13622,12241,11640,1
72,-20,-31,21946,18894,13594,12228,11628,1
52,28,4,21989,18912,13580,12215,11665,1
-10,3,-2,21989,18931,13622,12189,11653,1
16,-1,3,22075,18875,13636,12254,11653,1
48,20,7,22075,18931,13552,12215,11703,1
61,9,-24,22248,18931,13426,12176,11716,1
46,-5,13,22510,18857,13343,12228,11653,1
-8,-38,-12,22576,18875,13384,12215,11754,1
4,7,8,22576,18820,13343,12267,11678,1
-3,0,-3,22532,18894,13343,12280,11728,1
-18,-12,12,22510,18894,13301,12267,11716,1
-4,-12,-12,22466,18875,13287,12267,11703,1
-12,22,26,22401,18801,13301,12189,11741,1
36,-8,-2,22313,18894,13301,12267,11665,1
23,-43,9,22335,18912,13246,12280,11716,1
-13,24,0,22140,18801,13301,12267,11703,1
-12,-2,13,22205,18857,13260,12280,11703,1
-5,-26,8,22335,18801,13260,12280,11703,1
20,8,11,22270,18875,13274,12280,11665,1
-13,-19,16,22444,18894,13260,12241,11754,1
-68,-45,19,22532,18857,13246,12293,11716,1
-14,9,-1,22401,18783,13301,12267,11703,1
-29,-46,11,22444,18875,13232,12346,11703,1
20,11,-11,22444,18875,13232,12346,11703,1
1,-9,2,22488,18783,13232,12320,11665,1
33,22,-14,22423,18783,13287,12280,11728,1
14,-13,-18,22423,18857,13260,12267,11665,1
41,23,-41,22488,18857,13205,12280,11678,1
34,-3,-35,22423,18801,13205,12241,11716,1
31,-28,-19,22488,18838,13287,12320,11703,1
91,27,-75,22444,18783,13274,12333,11703,1
48,32,21,22510,18857,13218,12280,11716,1
-31,-37,-46,22510,18727,13232,12267,11653,1
43,-8,-39,22488,18764,13287,12280,11703,1
21,45,45,22401,18801,13260,12280,11678,1
76,-41,-33,22401,18820,13274,12241,11703,1
87,-77,-68,22335,18727,13232,12267,11754,1
97,-123,6,22401,18783,13218,12280,11754,1
76,-55,4,22292,18857,13287,12320,11741,1
-1,25,-26,22248,18857,13287,12254,11741,1
3,131,-41,22248,18857,13205,12333,11703,1
-91,87,1,22313,18727,13205,12254,11754,1
-17,21,-87,22379,18783,13232,12346,11691,1
-37,37,-40,22335,18820,13287,12267,11678,1
37,-8,29,22401,18709,13232,12346,11741,1
83,-74,27,22401,18783,13232,12267,11678,1
37,-16,-4,22313,18709,13260,12280,11703,1
42,11,3,22357,18783,13274,12267,11754,1
2,-43,-39,22335,18727,13260,12320,11728,1
6,-24,-18,22335,18820,13232,12267,11754,1
-7,31,14,22401,18801,13260,12280,11716,1
-18,-17,0,22379,18783,13287,12359,11754,1
-39,-23,35,22379,18727,13260,12267,11754,1
23,36,-16,22401,18746,13205,12320,11754,1
125,12,-8,22401,18801,13246,12293,11716,1
41,-24,-1,22488,18783,13260,12280,11703,1
-2,6,-5,22510,18764,13232,12333,11754,1
47,47,-4,22576,18727,13301,12333,11728,1
-4,-7,-10,22599,18709,13329,12424,11855,1
-6,-13,-26,22576,18709,13329,12490,11932,1
1,-16,23,22554,18727,13246,12411,11919,1
5,0,-6,22709,18838,13246,12451,11868,1
-7,0,7,22621,18727,13260,12451,11893,1
-2,-15,-10,22599,18764,13218,12424,11817,1
6,16,-4,22532,18801,13246,12398,11855,1
7,-8,-13,22532,18709,13246,12424,11868,1
26,14,-13,22621,18727,13260,12477,11868,1
13,8,-13,22510,18727,13274,12424,11804,1
10,19,-25,22576,18783,13260,12372,11855,1
29,8,6,22488,18727,13205,12451,11868,1
5,-13,-7,22532,18746,13274,12451,11830,1
11,-3,-51,22488,18709,13246,12438,11804,1
-25,10,2,22599,18783,13205,12398,11779,1
-1,-40,-6,22554,18727,13232,12385,11855,1
11,28,-12,22643,18783,13177,12372,11855,1
2,-27,6,22621,18746,13260,12372,11842,1
0,-8,5,22599,18709,13205,12451,11817,1
29,-19,-3,22665,18783,13218,12372,11779,1
-24,19,8,22665,18783,13246,12372,11868,1
3,-4,12,22621,18709,13246,12346,11881,1
-4,34,-5,22599,18746,13232,12398,11779,1
-15,-12,14,22554,18727,13205,12411,11868,1
16,2,-5,22576,18764,13246,12385,11881,1
-7,-33,2,22643,18727,13232,12372,11855,1
-13,14,5,22576,18691,13232,12424,11830,1
-9,-8,10,22687,18746,13205,12372,11804,1
-10,41,-4,22665,18783,13232,12438,11804,1
3,-12,0,22599,18709,13177,12372,11804,1
-24,-13,4,22709,18709,13287,12372,11855,1
7,0,-17,22621,18709,13260,12451,11855,1
33,12,12,22599,18691,13287,12424,11766,1
5,-4,-3,22665,18709,13232,12372,11779,1
-2,-20,-14,22621,18801,13260,12372,11830,1
3,5,-12,22576,18801,13177,12372,11842,1
21,-30,-12,22576,18764,13246,12385,11792,1
-11,-3,-7,22599,18709,13205,12398,11830,1
-3,9,5,22576,18672,13191,12477,11855,1
17,-19,1,22576,18727,13205,12451,11779,1
15,4,9,22599,18801,13260,12372,11804,1
0,12,3,22687,18764,13218,12372,11779,1
-4,-2,2,22709,18764,13287,12424,11804,1
-5,14,11,22643,18709,13260,12411,11804,1
-2,4,-8,22665,18727,13232,12477,11817,1
10,-4,4,22665,18672,13232,12398,11804,1
10,-2,-3,22709,18783,13205,12424,11804,1
-13,25,10,22665,18801,13246,12438,11868,1
13,-24,-36,22709,18764,13191,12438,11855,1
51,-58,37,22865,18709,13205,12451,11779,1
-47,-22,11,22798,18691,13232,12490,11868,1
-24,-48,-24,22798,18783,13205,12424,11868,1
117,-14,39,22932,18709,13246,12424,11932,1
-118,-21,5,22932,18709,13191,12490,11868,1
138,107,-66,22955,18581,13246,12464,11754,1
4,-12,11,22754,18362,13150,12451,11817,1
6,18,9,22754,18290,13218,12398,11703,1
6,-6,31,22731,18344,13163,12385,11754,1
-17,-32,28,22709,18308,13246,12398,11804,1
-84,-26,17,22776,18272,13232,12530,11830,1
-18,17,-33,23157,17915,13343,12530,11830,1
20,24,-26,23522,17340,13315,12490,11868,1
-19,-6,-11,24534,16173,13412,12477,11830,1
48,-21,-7,25490,15631,13538,12543,11868,1
132,21,-43,28301,15600,13679,12610,11868,1
18,-45,46,29158,15584,13792,12649,11881,1
9,-43,18,29686,15584,13764,12730,11855,1
12,-5,24,29865,15647,13707,12756,11906,1
26,-25,-19,29479,16238,13650,12756,11919,1
37,24,-17,28840,16368,13650,12743,11957,1
58,25,-4,28301,16632,13849,13510,12086,1
176,-4,-3,28245,16615,14937,14651,12333,1
88,36,-10,28301,16615,14846,14326,12267,1
-4,-32,21,28812,16632,14607,13906,12163,1
9,-31,-7,28612,16615,14385,13566,12112,1
43,-10,-7,28470,16565,14341,13426,12086,1
-13,8,24,28329,16549,14268,13232,12073,1
-14,-6,23,28329,16499,14180,13191,11957,1
5,18,-12,28385,16598,14108,13122,12034,1
16,38,3,28357,16598,13992,13191,11957,1
12,-14,9,28161,16565,14050,13095,11983,1
-14,35,-11,28133,16565,14021,13081,11957,1
-7,-5,-5,27939,16582,13964,13136,12009,1
-9,-18,0,27911,16516,14036,13068,12060,1
-12,14,-8,27911,16499,14036,13081,11983,1
-12,-37,12,27828,16549,13935,13095,11983,1
-22,-3,12,27828,16499,13964,13136,11957,1
-2,-4,-9,27745,16450,13935,13136,11983,1
17,-1,8,27609,16417,13992,13095,12009,1
-15,5,0,27636,16483,13964,13040,12009,1
27,9,-14,27445,16417,14021,13040,11983,1
4,16,7,27391,16434,14021,13122,11983,1
18,33,0,27391,16483,13921,13040,12009,1
12,-7,-1,27310,16368,13949,13095,12034,1
-8,12,-2,27391,16467,13992,13068,11983,1
-5,-21,-5,27310,16417,13978,13068,11957,1
-12,17,-7,27283,16417,13935,13122,11983,1
3,-1,0,27256,16434,13964,13068,11957,1
-1,-6,-23,27175,16352,13921,13136,11970,1
-28,21,10,27256,16319,13964,13136,12060,1
-1,-11,1,27256,16385,13964,13095,12021,1
3,0,-2,27068,16352,13992,13122,12009,1
-13,-5,15,27148,16352,14021,13095,12034,1
6,-27,-6,27175,16352,13992,13122,11970,1
-13,3,-4,27122,16254,13949,13027,11957,1
10,0,16,27068,16287,13964,13040,12009,1
-22,-22,-6,27122,16222,13992,13040,11983,1
-6,-3,3,27041,16303,13964,13068,11957,1
-7,-1,1,26988,16222,13921,13136,11983,1
12,-21,-3,27122,16254,13906,13122,11944,1
42,-8,-6,26961,16238,13935,13081,12021,1
21,2,10,27095,16238,13863,13095,11932,1
8,-7,-12,26988,16238,13935,13013,11957,1
26,-10,-9,27041,16287,13863,13027,11983,1
15,5,-8,27041,16303,13878,12999,11906,1
7,-4,-9,27095,16222,13964,13081,11842,1
6,-9,1,27095,16287,13878,13068,11830,1
30,29,-14,27095,16222,13906,12986,11868,1
49,-30,-10,27041,16189,13849,12986,11766,1
34,44,-17,27122,16238,13935,12999,11855,1
23,4,-7,27041,16206,13892,13027,11830,1
-11,-15,-5,27095,16238,13921,12986,11868,1
-8,24,0,26988,16206,13863,12959,11868,1
13,10,5,27095,16206,13921,13013,11881,1
10,-19,-2,27095,16222,13878,13040,11804,1
-10,15,9,27095,16222,13849,13027,11855,1
-1,-29,-6,27095,16222,13906,12972,11855,1
0,14,13,26961,16222,13849,13068,11766,1
-15,-7,-14,27041,16303,13878,12959,11804,1
21,-13,1,27041,16238,13835,12972,11779,1
-1,-2,5,27041,16238,13906,13068,11855,1
-25,15,2,27041,16271,13906,13040,11804,1
12,-29,11,27041,16189,13863,12986,11868,1
23,21,-21,26988,16254,13863,12972,11804,1
41,-13,10,27095,16222,13949,12972,11868,1
14,5,-6,27068,16254,13863,13027,11919,1
7,28,-14,27095,16271,13906,12959,11842,1
4,-20,6,27068,16222,13849,12972,11855,1
-2,-14,-5,27148,16254,13906,12972,11855,1
-24,0,-3,27068,16189,13849,12972,11881,1
1,-11,6,27068,16287,13849,13013,11906,1
-14,-12,-6,27122,16254,13863,12986,11906,1
-16,-26,10,27068,16222,13806,12932,11906,1
-10,-18,1,27041,16238,13821,12959,11855,1
8,7,3,27095,16238,13806,12986,11868,1
8,3,-8,26935,16222,13806,12932,11842,1
-3,-10,8,27095,16222,13806,13013,11804,1
-16,6,0,27095,16206,13849,12932,11842,1
-11,9,11,27041,16271,13849,13040,11804,1
1,-1,4,27095,16287,13792,12959,11868,1
-4,-4,-6,27148,16254,13821,13027,11804,1
7,-18,1,27148,16222,13806,13027,11817,1
-27,10,-8,27068,16189,13849,13013,11842,1
-11,8,4,27256,16222,13835,13013,11830,1
-3,-2,-8,27175,16254,13778,12959,11855,1
16,37,15,27095,16189,13806,13013,11817,1
-1,13,-6,27148,16254,13849,13013,11804,1
12,-2,5,27202,16254,13806,12959,11817,1
-8,-19,-20,27202,16287,13849,12932,11804,1
-20,-2,2,27148,16189,13821,13013,11855,1
-3,-7,0,27068,16222,13849,12918,11855,1
8,6,9,27095,16254,13806,13013,11779,1
-7,12,-3,27229,16189,13778,13013,11855,1
-2,-30,8,27148,16238,13749,13013,11804,1
13,6,-15,27148,16222,13792,13013,11855,1
10,5,3,27148,16238,13792,12945,11804,1
-3,-10,5,27095,16222,13835,13013,11830,1
-2,6,-1,27283,16238,13821,13027,11779,1
16,-17,-15,27256,16254,13749,12972,11855,1
-3,-13,11,27256,16271,13806,13013,11842,1
38,0,-17,27229,16287,13749,13013,11855,1
34,7,-3,27148,16271,13849,12986,11817,1
26,6,8,27283,16271,13749,12918,11830,1
-5,17,-19,27256,16287,13821,12986,11817,1
-4,29,-10,27175,16287,13721,12959,11779,1
16,-59,-2,27202,16222,13764,13013,11855,1
10,35,-21,27148,16238,13764,12972,11804,1
6,22,0,27148,16287,13849,13027,11804,1
8,-9,3,27202,16222,13821,12932,11868,1
-6,9,0,27256,16206,13792,12959,11868,1
-4,-8,7,27364,16254,13735,12905,11817,1
9,-3,5,27175,16254,13821,12918,11804,1
-11,21,8,27256,16189,13778,12959,11817,1
-14,5,-11,27175,16222,13821,13013,11855,1
-2,-12,-18,27229,16287,13749,12999,11855,1
9,-23,-6,27256,16222,13749,12905,11804,1
-8,-5,17,27256,16222,13821,13013,11868,1
-5,28,6,27283,16238,13735,13027,11855,1
11,-2,-4,27202,16336,13764,12999,11855,1
10,20,-9,27337,16238,13735,12932,11804,1
48,-4,-14,27283,16238,13764,12918,11855,1
-10,20,11,27202,16352,13792,12959,11817,1
6,-9,6,27337,16222,13749,12918,11779,1
24,6,-23,27229,16222,13749,12878,11766,1
3,-8,1,27283,16303,13679,12959,11804,1
2,-3,-6,27283,16287,13735,12959,11792,1
27,-3,13,27310,16287,13735,12959,11804,1
3,-7,-8,27256,16287,13679,12905,11804,1
-14,-10,-32,27202,16222,13749,12959,11855,1
-9,0,30,27256,16303,13693,12972,11779,1
14,7,5,27337,16287,13735,12972,11779,1
-8,27,-4,27283,16222,13650,12878,11855,1
8,2,22,27283,16287,13735,12891,11779,1
-4,5,-2,27310,16271,13679,12905,11842,1
-6,15,-2,27364,16189,13721,12878,11779,1
25,-10,-7,27310,16206,13679,12918,11804,1
4,-12,8,27256,16238,13665,12905,11868,1
-24,2,-12,27256,16254,13735,12905,11804,1
-24,-7,11,27364,16222,13735,12972,11766,1
-79,-60,9,27472,16222,13622,12905,11868,1
10,12,24,27527,16287,13693,12999,11906,1
3,-40,12,27202,16238,13650,12972,11855,1
-8,38,5,26644,16093,13693,13013,11957,1
30,-17,15,26357,15964,13636,12918,11855,1
0,5,1,26409,15980,13594,12959,11893,1
-17,12,-7,26305,15789,13594,12959,11881,1
-16,18,2,25945,15428,13608,13013,11932,1
-11,-16,10,25440,15181,13622,12986,11957,1
-24,34,6,25093,14997,13650,13040,11957,1
-27,28,5,24824,14876,13693,13013,11906,1
-21,1,6,24223,14876,13693,12959,11855,1
-10,-2,-5,23661,14801,13679,12959,11906,1
-26,8,6,23112,14786,13693,13027,11957,1
-15,4,-1,22776,14786,13679,13027,11906,1
17,13,14,22423,14786,13608,12918,11919,1
24,-26,6,22401,14846,13721,13027,11906,1
-19,-21,14,21967,14907,13679,12959,11881,1
-12,35,-2,20899,14937,13693,13013,11970,1
-24,-32,-18,20058,15119,13622,12959,11957,1
1,-3,3,19843,15537,13679,12959,11906,1
-23,12,0,19708,15521,13608,12945,11957,1
0,5,-11,19592,15584,13650,13013,11957,1
4,25,-2,19612,15537,13622,13027,11932,1
9,-5,-6,19631,15475,13636,12999,11855,1
6,-1,-13,19631,15537,13622,12918,11881,1
15,5,7,19650,15537,13608,12918,11906,1
116,25,-28,19941,15490,13665,13013,11957,1
79,14,-19,19999,15521,13636,12918,11881,1
36,5,-9,20196,15521,13594,12918,11906,1
-10,-16,-10,20236,15475,13636,12918,11906,1
37,6,-13,20295,15521,13622,12986,11855,1
-21,-4,15,20475,15521,13622,12986,11855,1
-23,48,-5,20495,15459,13580,12851,11919,1
8,-43,-5,20415,15537,13636,12986,11855,1
-13,1,-4,20415,15553,13608,13013,11855,1
-31,8,1,28754,11157,36386,30377,25894,2
25,-14,-1,28812,11157,36462,30591,26022,2
14,9,4,28697,11157,36424,30499,25971,2
-12,1,-24,28726,11182,36386,30561,25894,2
4,9,12,28726,11206,36462,30347,26047,2
-11,19,-15,28612,11157,36310,30347,26022,2
12,-23,15,28640,11157,36272,30591,25920,2
20,-15,2,28640,11206,36462,30438,25894,2
-29,-36,38,28927,11206,36499,30469,26124,2
-5,142,52,30317,11170,36767,31244,27041,2
-46,-5,101,31119,11268,36767,31465,27256,2
-41,-51,72,31497,11280,36920,31561,27364,2
-72,35,16,31529,11231,36882,31497,27418,2
-14,4,-52,31119,11182,36767,31465,27148,2
11,13,-52,30994,11219,36767,31497,27148,2
8,-48,22,31056,11231,36690,31529,27256,2
-24,-36,34,30776,11255,36805,31497,27068,2
14,1,-11,30530,11255,36538,31087,26961,2
10,-13,5,30347,11255,36424,31276,26935,2
11,-31,2,30408,11206,36538,31276,27068,2
-21,-35,-32,30256,11231,36462,31025,26882,2
-2,-10,4,30165,11231,36499,31087,26935,2
21,-7,-15,30226,11219,36462,31213,27041,2
21,-1,18,30226,11170,36462,31087,26882,2
4,14,-5,30226,11219,36386,31056,26882,2
-44,-33,5,30165,11206,36348,31025,26776,2
-5,-6,0,30165,11255,36348,31213,26749,2
-17,-19,13,30317,11255,36310,31087,26935,2
22,46,-12,30165,11231,36348,31593,27175,2
36,44,-11,30408,11219,36538,32732,28077,2
-12,-10,18,30499,11255,36462,32765,28301,2
-11,-7,-1,30256,11255,36614,32866,28385,2
18,-3,8,30347,11243,36310,32765,28301,2
15,8,-3,30226,11219,36310,32566,28414,2
10,-15,-10,30045,11280,36386,32467,28245,2
4,4,3,30045,11243,36310,32533,28161,2
19,37,1,30105,11255,36235,32369,28133,2
22,28,-7,30075,11206,36462,32402,27856,2
111,-5,-6,30105,11268,36235,32303,27911,2
149,-106,-43,30105,11206,36235,32205,27911,2
109,-150,-104,30165,11255,36235,32238,27718,2
266,-185,-11,30226,11255,36235,32043,27581,2
134,2,-20,30347,11243,36197,32108,27745,2
23,12,17,30286,11231,36386,32173,27663,2
-28,78,8,30226,11268,36424,31978,27691,2
-95,25,-14,30226,11255,36235,31881,27527,2
-57,185,92,30226,11231,36160,31849,27391,2
-72,19,-47,30165,11255,36310,32010,27499,2
-83,-69,-18,30195,11231,36197,31752,27472,2
-66,-12,-37,30105,11206,36197,31978,27256,2
-13,51,-12,30165,11268,36160,31913,27337,2
45,5,55,30135,11206,36310,31752,27445,2
-19,77,5,30015,11268,36310,31817,27391,2
-34,73,5,30045,11206,36348,31881,27256,2
-9,33,-52,30075,11268,36160,31785,27256,2
-67,42,-38,29925,11255,36085,31624,27283,2
-31,29,48,30015,11255,36047,31561,27256,2
2,16,22,30045,11206,36235,31529,27041,2
19,45,23,29895,11170,36047,31529,27175,2
13,-32,29,30015,11170,36010,31529,27229,2
0,-57,23,29835,11109,36197,31624,27068,2
57,14,-21,29775,11109,36047,31529,26988,2
-19,22,7,29865,11060,36235,31402,26988,2
-28,17,-5,29627,11084,36424,31307,26855,2
-3,-12,6,29657,11036,36197,31339,26855,2
16,-4,22,29657,11036,36160,31276,27015,2
42,10,4,29627,11012,36272,31119,26802,2
-3,-41,18,29746,11036,36348,31056,26776,2
-19,-53,7,29746,11060,36310,31056,26988,2
-15,47,-20,29746,11060,36047,31150,26935,2
-1,11,-13,29597,11060,36160,31025,26802,2
5,4,-3,29657,10987,36010,31087,26855,2
-7,16,-15,29568,11012,35972,30931,26882,2
-13,-5,7,29627,11012,36160,31213,26908,2
-4,5,-3,29627,11012,36047,31025,26882,2
-4,-15,16,29538,11060,36197,30962,26776,2
-9,9,-4,29538,11024,36010,31087,26935,2
13,-36,11,29479,11060,35898,30994,26670,2
-2,22,-23,29657,11012,36010,31213,26829,2
8,-36,-3,29627,11060,36160,30931,26908,2
13,18,-4,29538,11060,36122,30869,26855,2
6,-13,-2,29627,10999,36085,30869,26776,2
-7,28,-14,29568,11036,36047,31087,26882,2
2,-15,6,29450,11072,36047,31087,26855,2
13,-4,-3,29627,11012,36047,30931,26644,2
15,16,-5,29509,11084,36047,31025,26723,2
-11,-13,3,29509,11060,35972,30869,26723,2
4,11,-3,29627,11024,35935,30962,26723,2
7,1,-8,29509,11072,35972,31087,26644,2
20,2,-7,29568,11012,35935,30962,26855,2
-1,-3,-9,29597,11036,35898,30838,26855,2
-27,24,-5,29509,11084,35824,30931,26644,2
3,0,16,29686,11060,35787,30900,26723,2
50,58,25,29509,11084,35787,30715,26566,2
-18,-15,18,29421,11024,35935,30869,26723,2
-11,28,25,28955,11024,35898,30776,26592,2
-51,2,23,28301,11048,35787,30776,26566,2
26,-23,27,26124,11121,35091,30776,26513,2
55,-55,21,22292,11133,35055,30807,26513,2
28,-20,0,20676,11157,35127,30869,26829,2
-13,50,1,20019,11121,35091,30807,26882,2
30,-55,55,19766,11109,34874,30715,27041,2
90,-8,-1,19306,11182,35018,30869,27283,2
44,-43,53,19099,11109,34874,30807,27202,2
-22,-27,23,19306,11206,34982,30869,27911,2
10,0,24,19785,11157,34982,30715,27966,2
6,38,-30,20295,11157,34910,30715,28273,2
-12,-19,48,21229,11157,34767,31025,29304,2
29,-39,7,22183,11206,34696,30962,29925,2
-8,-5,9,22313,11182,34518,31056,30045,2
-38,-19,5,22401,11182,34447,31025,30256,2
6,22,-16,22599,11219,34235,30962,30684,2
6,-14,13,22665,11255,34341,31025,30807,2
10,-4,-1,22665,11255,34235,30838,30653,2
-27,-35,16,22665,11194,34165,30962,30499,2
-9,-4,2,22798,11219,34235,30962,30286,2
-2,-21,8,22820,11219,33991,30745,30256,2
-8,1,3,22955,11182,34060,30838,30105,2
-7,6,1,22798,11170,33921,30653,30015,2
8,-16,1,22910,11206,33991,30838,29746,2
15,19,-9,22955,11170,34026,30715,29895,2
2,-14,2,22955,11255,33991,30715,29805,2
-4,-13,8,22932,11206,34060,30745,29657,2
3,-57,14,22798,11182,34060,30715,29509,2
-6,-80,44,22488,11219,33921,30499,29421,2
-39,-41,33,22357,11182,33714,30469,29158,2
-12,-12,12,22401,11255,33817,30408,29274,2
-29,3,0,22554,11255,33714,30347,29042,2
-44,-4,6,22488,11170,33508,30256,28984,2
-7,-3,18,22532,11206,33645,30226,28955,2
0,11,4,22466,11255,33508,30226,28984,2
-35,17,-2,22621,11219,33576,30377,28984,2
16,0,6,22532,11231,33576,30226,28812,2
4,-6,2,22488,11268,33645,30226,28754,2
15,4,-5,22576,11255,33714,30377,28955,2
11,12,7,22510,11231,33474,30347,28726,2
-8,3,1,22709,11243,33576,30347,28927,2
1,-6,1,22754,11255,33576,30226,28812,2
-4,-6,0,22754,11219,33611,30317,28840,2
-16,9,1,22798,11255,33679,30286,28812,2
-11,-11,0,22754,11231,33714,30317,28697,2
8,12,0,22731,11219,33439,30256,28812,2
-1,4,2,22820,11231,33542,30105,28726,2
3,1,3,22754,11255,33576,30165,28812,2
3,-12,7,22709,11255,33679,30256,28812,2
18,-10,2,22754,11255,33508,30286,28812,2
19,24,-3,22955,11206,33645,30226,28498,2
-62,11,34,23431,11206,33576,30015,28583,2
-50,-52,25,23661,11206,33887,30105,28470,2
-43,25,38,23431,11219,33921,30015,28357,2
-34,15,15,23271,11231,33956,30015,28357,2
-7,37,-16,23569,11255,34165,30105,28301,2
16,-8,4,23847,11268,34341,30105,28301,2
7,-13,-7,23894,11219,34447,29925,28161,2
0,-10,2,23894,11255,34412,29895,28189,2
-22,0,6,23940,11206,34412,30135,28301,2
-7,20,-7,23940,11268,34200,29895,28301,2
4,-5,5,23847,11243,34130,29865,28189,2
2,-7,-3,23847,11231,34165,29984,28301,2
10,-7,1,23987,11219,34165,30075,28301,2
15,8,-3,24011,11219,34130,29955,28161,2
55,-8,11,24176,11528,33991,30015,28133,2
41,8,-31,24247,12891,34165,29865,28189,2
4,-17,-5,24438,14547,33887,29925,28077,2
-23,-16,2,24486,15089,33921,29865,28273,2
-19,-33,6,24438,14861,33921,29895,28022,2
16,6,-1,24438,14786,33991,30015,28049,2
31,-24,-7,24318,14636,34130,30045,28049,2
-7,-10,12,24462,14636,33921,30135,28189,2
-18,13,3,24366,14151,33887,29925,28049,2
10,13,-11,24223,14137,34026,30015,28189,2
-3,14,1,24438,14079,33991,30105,28133,2
8,-2,-7,24366,13764,34095,29865,28245,2
-12,48,-19,24486,13679,33991,29984,28133,2
-41,47,-32,24897,13095,34412,30165,28527,2
-4,7,9,25415,12743,34376,30530,29362,2
32,13,-20,25591,12530,34624,30499,30715,2
-16,-122,69,26253,12490,34306,30286,32566,2
32,-98,79,26513,12424,34235,30408,33269,2
-86,-91,42,26461,12385,33921,30377,33202,2
-457,162,182,26383,12346,34839,28955,33236,2
-421,231,-24,25666,12372,35712,28840,33168,2
348,-81,-41,25216,12346,36462,28583,32832,2
-102,-162,27,24630,12543,38544,28726,32765,2
740,-422,-69,23522,12504,38912,30226,32966,2
889,363,-218,22977,11653,38100,31752,33236,2
438,590,-355,25241,11206,37308,32533,33371,2
-49,439,-174,27041,11206,36690,32238,33202,2
152,173,-79,28612,11170,35787,32566,33303,2
295,-69,-2,29775,11255,35309,32500,33303,2
70,-75,21,30469,11490,34982,32303,32999,2
-74,-108,85,30900,11465,35345,32271,32832,2
26,-79,13,30962,11932,35236,31881,32566,2
60,9,-7,30838,12451,35382,31720,32271,2
22,-21,1,30962,12851,35309,31529,32500,2
-24,25,-18,30869,13150,35127,31593,32140,2
-27,29,-9,30900,13068,35272,31434,32467,2
-46,50,-36,30776,12959,35091,31339,32271,2
8,2,21,30715,12756,35272,31213,32075,2
-29,69,-53,30469,12596,35272,31339,32238,2
-10,19,4,30591,12490,35127,31307,32108,2
56,-25,10,30408,12372,35055,31056,31978,2
-43,0,10,30347,12320,35055,31025,32043,2
34,32,-13,30347,12320,35127,31150,32173,2
-7,-22,14,30195,12333,35055,31213,32108,2
-28,-87,56,30469,12346,34874,31370,32205,2
10,-57,14,30591,12306,34982,31752,32010,2
18,71,-70,30715,12333,35127,32336,32205,2
6,-92,26,30499,12438,35127,32369,32173,2
17,-9,-9,30256,12438,34839,32173,31785,2
3,6,38,30256,12438,34874,31849,31817,2
6,23,-39,30347,12372,34624,31817,31688,2
9,9,18,30165,12385,34839,31720,31913,2
2,-14,10,30256,12451,34553,31881,31849,2
46,22,28,30226,12477,34660,31624,31593,2
-6,11,-12,30045,12438,34518,31720,31593,2
36,-13,8,30105,12477,34482,31688,31529,2
-19,-15,9,30226,12530,34624,31497,31752,2
11,10,-2,30256,12477,34589,31656,31656,2
10,-1,3,30165,12583,34589,31561,31785,2
16,-24,5,30015,12530,34553,31465,31593,2
-43,7,-9,30165,12543,34447,31370,31656,2
42,6,-2,30015,12610,34341,31402,31720,2
43,-81,17,29895,12583,34518,31529,31561,2
-10,-6,1,29865,12556,34482,31276,31497,2
7,11,-4,29984,12543,34447,31213,31465,2
7,0,-5,29925,12583,34376,31150,31465,2
-33,-12,0,29805,12530,34412,31181,31434,2
4,4,4,29835,12530,34447,31339,31370,2
10,-14,-9,29775,12490,34412,31339,31465,2
14,11,5,29746,12504,34553,31276,31339,2
32,3,-2,29865,12583,34341,31119,31307,2
7,2,-5,29835,12583,34376,31276,31402,2
21,16,-15,29775,12570,34341,31025,31497,2
23,17,-6,29805,12543,34482,31244,31339,2
27,23,-13,29835,12556,34447,30994,31339,2
-3,1,7,29657,12556,34482,31087,31434,2
-36,-7,-2,29657,12477,34271,30962,31339,2
-35,15,-4,29597,12490,34482,30869,31339,2
-12,-12,-4,29627,12530,34376,30869,31213,2
15,-20,10,29657,12438,34482,31119,31307,2
-16,-12,4,29509,12320,34306,30869,31497,2
-7,-21,12,29509,12163,34306,30869,31339,2
1,-13,-5,29657,12163,34447,30962,31213,2
-2,-7,0,29627,12176,34518,30838,31244,2
21,-55,-33,28840,12060,35787,30653,31276,2
21,-194,-15,27800,12086,36085,30256,31561,2
-100,-113,-23,27175,12112,36010,29746,31946,2
-214,-219,84,26618,12112,36348,29479,32075,2
-151,-261,130,26202,12047,36690,29187,31849,2
6,-209,48,25591,12009,36805,29187,31593,2
-37,45,-44,25793,11653,36576,29042,31593,2
59,315,-120,26618,11304,36386,28927,31752,2
-23,111,-20,27175,11219,36160,28869,31978,2
-12,497,-160,26961,11157,36348,28984,31785,2
-9,-69,28,27499,11219,36386,28583,31785,2
-10,-221,41,27256,11255,35018,28357,31119,2
-12,-105,39,26855,11206,34803,28357,30994,2
3,-173,27,26961,11219,34624,28357,30715,2
19,-63,34,26882,11255,34589,28217,30715,2
21,25,-12,26829,11255,34660,28077,30838,2
-2,1,-1,26829,11268,34553,28049,30776,2
-37,-13,-11,26802,11206,34447,28161,30838,2
27,-12,30,26961,11206,34341,28022,30869,2
-11,-3,-16,26961,11255,34553,28077,30838,2
15,29,-12,27148,11255,34412,27911,30838,2
13,-2,-6,27202,11231,34271,27856,30931,2
18,37,1,27364,11268,34482,27939,30962,2
26,23,0,27527,11231,34235,28077,31056,2
2,-75,15,27581,11280,34130,27911,31087,2
-15,-48,9,27691,11268,34235,28022,30994,2
-36,-53,16,27609,11255,34341,28022,30994,2
-14,-22,19,27663,11268,34060,28077,31056,2
37,3,-22,27609,11268,34060,28049,30838,2
-38,22,-7,27691,11231,34130,27718,30838,2
-16,-41,5,27364,11268,34130,27911,30962,2
-21,21,-5,27364,11219,34235,27911,30776,2
-80,-49,-10,27310,11304,34200,27883,30962,2
54,51,35,27391,11280,34235,27691,31025,2
-27,45,5,27337,11280,34060,27718,30745,2
-24,33,3,27364,11304,33991,27883,30776,2
1,-2,22,27472,11268,33991,27691,30776,2
-27,-33,52,27391,11304,34130,27663,30900,2
-17,-15,30,27581,11280,34060,27691,30869,2
-38,55,-10,28245,11255,34341,27800,30994,2
-7,-13,-8,28357,11268,34235,27800,30994,2
-2,-107,4,28189,11255,34165,27581,30776,2
49,-1,-53,28301,11219,34095,27800,31025,2
13,24,-6,28301,11243,34165,27527,30931,2
-53,-30,-11,28133,11231,34165,27691,30869,2
-8,40,-16,28077,11231,34060,27609,30962,2
6,83,-2,28161,11268,34130,27636,30962,2
-14,-4,-13,28245,11206,33991,27554,30994,2
18,19,1,28273,11268,34060,27472,30900,2
20,27,-3,28161,11231,34130,27663,30900,2
-11,-36,13,28133,11268,33887,27581,30962,2
12,-8,-8,28161,11231,33921,27663,30900,2
9,-10,-11,28245,11219,34130,27472,30653,2
-29,5,7,28161,11268,33852,27391,30807,2
-29,-50,-2,28161,11255,33887,27527,30869,2
2,10,-1,28022,11206,34026,27472,30900,2
24,-20,6,28245,11255,33921,27364,30653,2
100,-11,26,28161,11219,33956,27636,30622,2
-142,12,41,28189,11206,34200,27581,30715,2
-15,37,13,28161,11170,34130,27364,30715,2
-6,23,-18,28105,11219,33852,27554,30838,2
8,17,14,28022,11170,33921,27499,30622,2
-21,-8,-4,27966,11157,33887,27364,30715,2
-9,-46,10,27994,11206,33956,27337,30807,2
5,-14,-6,28022,11157,33921,27364,30561,2
3,-76,-15,28022,11182,33991,27364,30653,2
9,-32,-8,28077,11157,33887,27337,30561,2
38,-11,-1,28133,11206,34060,27391,30776,2
-4,-8,-4,28077,11219,33991,27418,30591,2
10,9,-9,27939,11206,34026,27499,30622,2
0,5,3,28133,11194,33748,27283,30591,2
-11,3,-16,28022,11243,33748,27310,30776,2
-30,-17,-2,28105,11231,33887,27310,30745,2
-4,-5,2,28022,11206,33748,27418,30776,2
-1,3,-1,28022,11255,33921,27256,30715,2
1,-51,6,27994,11206,33921,27364,30530,2
20,-19,11,28049,11219,33679,27472,30591,2
16,-8,-7,27911,11182,33748,27337,30530,2
-43,0,0,27883,11157,33991,27310,30684,2
-24,44,2,27773,11133,33921,27364,30745,2
-71,-20,-3,27939,11133,34095,27364,30653,2
-30,-3,16,27800,11170,33991,27364,30715,2
0,0,2,27939,11157,33887,27418,30653,2
23,-7,9,27939,11121,34026,27527,30591,2
-2,-12,1,27911,11157,33991,27310,30499,2
10,5,2,27939,11219,33991,27337,30653,2
-33,-2,0,27911,11182,33852,27364,30653,2
-31,-4,-4,27800,11157,33748,27337,30715,2
33,15,0,27800,11157,33852,27310,30530,2
-4,15,-7,27800,11194,34060,27472,30499,2
9,9,0,27773,11206,33852,27499,30561,2
32,16,-6,27773,11206,33991,27364,30653,2
15,36,3,27828,11121,33783,27256,30561,2
-8,39,-15,27800,11145,33956,27364,30530,2
-2,44,-20,27828,11157,33887,27364,30745,2
-9,52,-18,27691,11109,33921,27472,30591,2
-7,2,-8,27718,11182,33991,27499,30408,2
-24,-5,13,27800,11109,33852,27337,30469,2
-54,13,18,27636,11096,33921,27499,30715,2
-54,36,0,27718,11145,34130,27527,30684,2
-29,3,-10,27609,11157,34165,27391,30530,2
-32,-5,14,27691,11096,34130,27472,30715,2
-24,20,-10,27527,11060,33991,27527,30561,2
-1,-4,1,27554,11145,33887,27472,30530,2
-12,-35,11,27499,11109,33887,27391,30377,2
5,-17,7,27636,11157,33921,27391,30653,2
-8,-46,11,27472,11072,33714,27527,30622,2
8,-22,12,27581,11121,33783,27472,30591,2
148,16,40,28754,11133,33679,28385,30745,2
240,130,-5,29042,11206,33887,28927,31181,2
-86,-147,44,28669,11268,33748,28442,31087,2
1,31,-55,28245,11255,33645,28245,30994,2
35,-14,28,28161,11255,33508,28049,31025,2
19,-33,6,28189,11206,33645,28189,30994,2
24,11,2,28161,11157,33405,27883,31025,2
45,9,-16,28133,11157,33576,27966,30838,2
54,7,-17,28189,11206,33337,27856,30900,2
-5,39,-11,28077,11170,33474,27994,30869,2
13,10,-1,28049,11231,33337,28049,30776,2
-2,22,-6,28022,11170,33439,27828,30776,2
-58,-41,23,28133,11157,33236,27773,30838,2
76,-128,21,27472,11231,33542,28022,30165,2
-120,-79,22,26331,11182,31881,28301,28301,2
-175,-53,58,25142,11182,30408,23777,25440,2
-136,-167,62,24702,11206,29274,22313,23569,2
1,-50,30,24318,11206,28869,21627,23022,2
-129,-33,64,23987,11206,28527,21395,22183,2
-74,78,84,23964,11219,29450,21967,22313,2
-104,110,-68,23824,11170,31213,24223,23522,2
-19,12,17,24247,11219,33576,27966,26670,2
58,-8,-34,25390,11255,34271,30962,28640,2
62,-22,4,25869,11170,34696,31465,29158,2
84,-34,-31,25440,11206,34910,30408,28301,2
102,-27,5,25241,11206,35272,28612,26723,2
29,-118,33,24946,11219,35199,26697,25291,2
68,-65,-30,25019,11243,35199,25818,24630,2
0,-9,-12,25241,11243,35309,25691,24486,2
2,-3,-7,25742,11182,35163,25793,24606,2
13,12,-4,25945,11206,35382,25767,24510,2
37,25,-14,26124,11219,35492,25717,24486,2
11,-5,-9,26829,11231,35787,25691,24510,2
26,29,-20,28133,11194,36614,26099,24775,2
-41,47,4,29955,11243,37386,27283,25515,2
-53,34,32,31978,11243,38382,29362,27283,2
-31,51,52,32633,11243,39160,30165,27148,2
-5,-51,18,32599,11182,39244,30561,26988,2
-45,-118,83,32010,11255,38912,30015,26513,2
204,258,7,32832,11206,36272,29568,25793,2
135,-43,-43,34839,11231,36310,28669,25192,2
-70,-274,-42,35861,11292,34589,26776,24751,2
77,-205,-7,34624,11416,33852,29925,23964,2
74,190,-13,35972,11515,34376,30900,23112,2
-94,-113,42,37426,11703,34235,31087,23431,2
-69,-125,16,36959,11868,33887,31370,23248,2
26,-37,85,37230,11855,30838,32533,23180,2
-39,-50,-22,37152,11868,29895,32732,23112,2
106,104,-86,36310,11855,28245,19554,20236,2
276,228,-41,35824,11881,27310,19099,19766,2
485,64,-238,37741,11957,27911,20798,21229,2
375,110,-80,41667,12163,30105,24630,24558,2
130,107,31,43093,12451,31497,26961,27095,2
-30,72,-7,43329,12583,32336,28022,28669,2
103,76,48,43377,12583,32799,28555,29391,2
-21,-99,85,42812,12596,32633,28612,29538,2
-70,52,-18,42395,12267,32500,28357,29304,2
8,62,-28,41712,11515,32336,28133,29450,2
-20,-37,22,41399,11317,32108,28022,29304,2
15,-18,3,41443,11304,32271,28133,29274,2
37,-91,4,41221,11304,31978,27856,29071,2
68,-47,-6,41088,11268,32108,27745,28726,2
20,-35,10,41132,11268,32010,27828,28754,2
13,-30,-9,40780,11255,31881,27800,28697,2
-18,3,10,40868,11304,31913,27636,28726,2
2,-18,-2,40955,11255,31881,27773,28697,2
3,27,-10,40693,11280,31785,27581,28669,2
12,9,-9,40605,11304,31688,27609,28498,2
-12,-5,-1,40562,11341,31656,27663,28583,2
-5,22,-7,40562,11243,31624,27472,28470,2
-3,-9,2,40389,11317,31624,27581,28301,2
-17,-16,-1,40173,11255,31370,27581,28385,2
-3,-2,5,40173,11304,31529,27472,28245,2
-2,-2,3,40088,11304,31402,27527,28133,2
4,-4,-8,40088,11317,31465,27445,28301,2
-3,8,4,40045,11280,31465,27364,28161,2
-6,-4,-4,40088,11255,31339,27283,28329,2
10,3,-1,40002,11268,31244,27581,28245,2
-10,47,-15,39960,11304,31434,27391,28245,2
-6,-6,10,40088,11317,31244,27581,28301,2
14,-23,5,40088,11292,31370,27391,28301,2
8,10,-15,40131,11304,31150,27581,28385,2
-8,-15,-8,40173,11304,31244,27581,28840,2
1,-21,13,40131,11317,31213,27554,28984,2
-16,-3,5,40088,11280,31150,27527,28840,2
10,11,-6,40259,11317,31339,27445,28927,2
-2,10,-17,40389,11317,31276,27391,29450,2
-2,-6,-5,40780,11268,31276,27581,29657,2
-6,-25,20,40519,11317,31056,27581,29391,2
-14,-31,17,40346,11255,31181,27283,29274,2
-1,5,-6,40088,11317,30994,27364,29158,2
-22,-21,26,40002,11317,30994,27472,28984,2
8,-8,7,39705,11243,31025,27202,28754,2
-24,-4,-8,39663,11280,30962,27256,28612,2
-24,-164,24,39494,11243,30591,26776,28161,2
-131,-84,-13,39244,11255,29627,25415,26776,2
-464,202,-377,35492,11268,26566,21395,23592,2
-911,437,-252,30653,11280,24606,20039,22248,2
-398,-74,41,25920,11304,24510,20475,22226,2
70,-375,-46,19863,11354,26935,23592,23157,2
560,-816,46,15366,11453,27418,24223,24462,2
103,63,49,17323,13482,26935,23499,24897,2
-199,942,-27,19554,16287,26150,22776,26022,2
-173,759,-43,20475,17513,26047,22621,27283,2
-233,371,-138,21521,17306,27691,24271,28498,2
334,-874,343,22887,13792,27994,24486,27828,2
22,233,3,23569,11354,28077,24995,27391,2
13,285,-39,23754,11268,28133,25291,27581,2
-12,-5,-7,23385,11268,29013,26150,28049,2
-50,-96,17,23157,11304,29274,26150,28022,2
-25,-125,38,23248,11341,29100,25894,27828,2
26,-84,34,23339,11329,29245,25996,27718,2
-22,-11,1,23454,11354,29071,25945,27527,2
-7,-34,13,23754,11317,29274,25894,27691,2
17,21,3,23870,11366,29274,26073,27691,2
-13,9,-9,24129,11341,29746,27175,28245,2
45,16,-21,24606,11354,29955,27911,28984,2
38,39,-17,24510,11329,29746,27636,29391,2
25,-69,62,24606,11354,29746,27718,29479,2
3,-75,58,24946,11329,29984,27745,29925,2
-25,-18,48,24534,11465,30838,27691,29775,2
-45,-22,18,24630,11465,31849,27499,29746,2
20,-13,-19,24534,11403,31785,27745,29509,2
-7,-26,-11,24921,11354,31752,27691,29627,2
-15,-15,0,24995,11354,31624,27554,29479,2
17,-19,4,25019,11379,31465,27581,29657,2
-33,-70,43,24946,11354,31402,27499,29479,2
-15,-95,26,24799,11354,31370,27418,29479,2
-67,-2,30,24799,11379,31624,27691,29627,2
-143,24,7,24775,11317,31720,27554,29627,2
-134,-40,47,24799,11366,32043,27609,29627,2
-55,-62,26,24995,11354,32369,27718,29421,2
-78,-6,8,24921,11329,32173,27856,29391,2
24,18,-10,24775,11379,32140,27636,29304,2
-29,2,-3,24702,11366,32238,27718,29450,2
7,-21,20,24824,11317,32205,27800,29304,2
33,2,12,24946,11391,32043,27581,29274,2
-3,28,-22,24995,11366,32108,27609,29158,2
39,20,-25,24995,11329,31978,27745,29042,2
-14,6,-3,25044,11317,31881,27581,28984,2
10,4,-9,24946,11317,31849,27718,28898,2
-29,21,-15,24799,11354,31720,27581,28898,2
-5,-4,16,24702,11329,31752,27856,28812,2
-43,-11,17,24558,11304,31752,28133,28840,2
-61,4,34,24534,11341,32238,28927,28555,2
-248,-41,64,25044,11403,33508,29013,28301,2
-54,-112,159,25616,11366,34982,29686,28245,2
-130,-163,105,25894,11490,35272,30075,28470,2
-109,-40,42,26099,11465,35492,29984,28583,2
130,-73,14,25996,11515,35492,30045,28385,2
99,-58,-4,25971,11515,35639,30075,28301,2
41,-2,-9,26073,11453,35602,30165,28189,2
19,13,-3,26124,11428,35455,29984,28357,2
-5,-8,-7,26022,11503,35455,29746,28301,2
37,8,-5,26176,11465,35639,29895,28301,2
-15,-17,3,26305,11503,35602,29865,28245,2
16,2,0,26618,11453,35418,29805,28245,2
15,-8,-4,27148,11490,35861,29627,28161,2
6,-7,0,28049,11478,36047,29805,28301,2
13,2,-2,28527,11503,36160,29627,28049,2
4,17,-4,29509,11465,36197,29865,28133,2
-45,12,16,30869,11465,36576,29895,28301,2
83,-77,12,31213,11515,36767,29746,28301,2
-25,-26,14,30715,11503,36690,29835,28217,2
37,2,3,30317,11553,36310,29775,28189,2
16,9,0,30226,11528,36386,29805,28077,2
26,-5,-4,30165,11565,36160,29627,28022,2
-8,4,4,30195,11553,36197,29805,28161,2
-19,-22,1,30226,11503,36197,29627,28133,2
18,-18,-11,30377,11553,36197,29716,28022,2
32,-20,0,30347,11515,36010,29746,28189,2
18,-33,-12,30165,11578,36047,29597,28245,2
73,1,-10,30105,11515,35935,29627,27966,2
-33,36,-12,30165,11515,35787,29805,28133,2
6,-16,-2,30075,11528,35861,29538,28133,2
10,-4,-9,29984,11565,35861,29775,28133,2
-20,-42,-1,29955,11503,35935,29716,28022,2
-19,-49,-5,29925,11528,35861,29568,28189,2
93,-306,62,29835,11565,35565,29450,27994,2
7,18,-28,29805,12034,35676,29568,27939,2
20,0,4,29865,13068,35602,29627,28077,2
3,-8,-13,29865,13707,35602,29450,27911,2
5,-14,11,29805,14429,35528,29657,27856,2
1,-23,-4,29686,15043,35418,29450,28077,2
-5,13,-3,29746,15428,35309,29479,28077,2
12,-10,-7,29865,16157,35199,29627,27939,2
8,4,-2,29716,15647,35236,29568,28049,2
-23,8,5,29627,15089,35199,29450,28049,2
-3,33,5,29657,15211,35272,29421,28049,2
-26,10,-11,29479,15028,35163,29627,27856,2
-3,8,5,29538,14195,35163,29479,27939,2
90,91,-33,29391,12623,35418,29627,27745,2
47,111,-82,29509,11804,35492,29597,28161,2
7,54,-15,29216,11528,35309,29274,28301,2
-31,118,-46,28984,11453,35055,29274,28697,2
59,52,-13,28470,11465,34982,29333,28697,2
-30,-37,11,27310,11503,34910,29042,28555,2
-14,38,-15,27148,11478,34660,29042,28640,2
5,111,-44,27256,11453,34624,28955,28612,2
42,117,-50,27581,11391,34589,28869,28612,2
-90,119,-33,28217,11255,34910,28955,28697,2
-29,90,-4,28301,11170,35055,29100,28583,2
-32,5,-20,28105,11109,34982,29158,28640,2
-1,-3,9,27911,11072,35127,29274,28527,2
18,-23,5,27800,11084,35127,29304,28385,2
0,-3,-2,27636,11084,34874,29042,28470,2
28,-82,54,27609,11157,34946,28984,28301,2
-61,53,-26,27636,11084,34839,28955,28245,2
-18,-11,0,27663,11157,34696,29187,28329,2
-17,-24,12,27527,11157,34839,29100,28133,2
-16,-37,24,27472,11170,34767,29071,28245,2
-11,-21,16,27472,11170,34482,28984,28189,2
21,-46,9,27472,11280,34341,28754,28245,2
9,-2,-9,27310,11553,34165,28669,28133,2
7,20,-20,27391,11703,34341,28697,28189,2
-8,-6,-1,27472,11628,34165,28612,28301,2
-8,-3,-2,27364,11628,34026,28783,28301,2
-18,0,-10,27256,11665,34271,28640,28245,2
6,13,10,27364,11678,34060,28812,28189,2
5,-8,-1,27364,11653,34200,28812,28133,2
3,-36,17,27364,11640,34060,28840,28245,2
19,0,-11,27364,11678,34235,28812,28077,2
13,8,-4,27310,11640,34165,28612,28245,2
16,16,-7,27256,11640,34095,28726,28245,2
9,24,-3,27310,11615,33991,28783,28273,2
-8,-30,1,27202,11615,34165,28583,28217,2
-2,-42,10,27256,11653,34271,28669,28049,2
-1,-31,22,27041,11615,34271,28812,28049,2
26,-88,36,25717,11628,32966,27391,27068,2
-54,-144,63,25216,11603,31529,26228,26383,2
-106,-77,36,25241,11603,30561,25691,25691,2
91,-121,-7,25515,11603,28812,24799,25192,2
138,56,-105,25818,11528,25465,21796,22576,2
182,87,-48,26644,11465,23248,19344,20515,2
121,-49,-9,26882,11440,21291,17634,18709,2
63,22,36,27800,11503,19631,16109,17169,2
70,86,38,29865,11453,18783,15258,15916,2
234,-71,62,32799,11453,18380,14726,15304,2
160,-68,19,34803,11503,18344,14518,15150,2
36,-34,-19,34910,11528,19401,14876,15506,2
-1,-225,33,34341,11553,23730,17951,17203,2
61,-16,-39,37465,11503,26383,20375,19005,2
104,46,-9,39369,11653,29216,22999,21542,2
18,-91,-7,39411,11779,31434,25996,25044,2
37,-26,-8,39327,11868,32633,27472,27202,2
2,-83,23,38059,11983,32765,27256,26357,2
13,40,-45,19439,11416,11868,20078,20078,3
13,-52,-48,19497,11503,11906,20117,20078,3
-43,-64,-166,19573,11503,11970,20375,20157,3
312,-212,-97,19785,11416,12009,20078,20176,3
96,-55,-107,19631,11428,11970,20058,20039,3
235,193,204,19477,11453,11944,19921,19999,3
-212,70,60,19458,11465,11932,19401,20019,3
-630,327,-110,19458,11416,11944,19401,20058,3
60,54,23,19554,11403,11906,19420,20098,3
-11,4,-6,19573,11465,11881,19401,20196,3
-51,-15,-23,19554,11403,11932,19458,20098,3
-2,14,-13,19612,11416,11932,19458,20216,3
1,-9,-2,19477,11453,11893,19382,20117,3
-2,8,9,19458,11453,11855,19401,20176,3
17,14,-2,19458,11428,11868,19363,20216,3
20,-7,-24,19573,11453,11919,19401,20117,3
-13,-27,16,19612,11465,11855,19325,20196,3
20,-63,-5,19612,11453,11906,19306,20157,3
400,-260,-63,19960,11366,11932,19458,20256,3
547,-352,-224,19535,11255,11855,22357,22248,3
194,-11,-255,19306,11255,11716,23800,22955,3
872,-420,-355,19287,11231,11716,24414,23294,3
1400,-627,-844,19999,11231,11754,24223,23477,3
1197,-385,-704,19708,11182,11766,24318,23569,3
433,-211,-426,19650,11121,11830,24223,23431,3
93,12,-154,19477,11170,11804,24152,23203,3
24,81,-48,19325,11194,11804,23800,23112,3
-67,72,39,19249,11206,11804,23661,22955,3
-14,37,25,19231,11121,11804,23431,22754,3
-86,23,34,19344,11133,11804,23339,22820,3
-81,27,72,19268,11206,11804,23431,22776,3
-98,39,70,19382,11170,11716,23203,22576,3
-33,-3,31,19458,11170,11754,23271,22709,3
-109,44,88,19535,11206,11716,23294,22576,3
-54,15,62,19477,11145,11804,23248,22576,3
-30,8,35,19612,11157,11716,23157,22510,3
-2,7,-3,19554,11157,11804,23135,22599,3
-15,2,6,19477,11121,11766,23112,22488,3
-18,0,16,19535,11133,11716,22865,22599,3
-25,8,22,19612,11206,11754,22999,22423,3
-514,86,404,19554,11157,11754,22843,22423,3
-738,644,437,19689,11182,11792,22776,22488,3
-194,183,292,19612,11133,11716,22843,22335,3
-790,518,499,19612,11219,11703,22843,22357,3
-898,436,480,19669,11206,11728,22754,22248,3
-304,174,154,19689,11182,11703,22754,22270,3
82,-9,9,19535,11133,11703,22665,22140,3
-51,92,18,19420,11219,11779,22488,22140,3
13,9,-7,19401,11206,11817,22599,22226,3
30,27,-68,19420,11194,11804,22444,22226,3
39,9,-40,19458,11194,11779,22488,22161,3
-43,-9,32,19458,11170,11779,22554,22183,3
2,-1,-32,19420,11157,11754,22401,22053,3
9,-24,-13,19669,11194,11703,22444,21946,3
3,-2,-16,19458,11206,11804,22488,22075,3
0,-3,10,19766,11182,11728,22379,21967,3
-10,-9,14,19439,11170,11792,22357,22075,3
3,-15,-10,19650,11206,11716,22488,21989,3
17,3,-9,19631,11170,11716,22335,21903,3
15,2,-26,19477,11206,11728,22313,22096,3
34,-34,-8,19689,11206,11779,22313,21989,3
159,-18,-43,19785,11206,11754,22488,21989,3
527,-373,-159,19344,11170,11716,22599,22183,3
3094,-1049,-1576,19306,11206,11665,23044,22401,3
2042,-588,-1172,19535,11157,11703,23638,22999,3
1067,-28,-539,19689,11157,11653,23707,23067,3
336,-80,-134,19863,11170,11754,23499,22932,3
947,-43,-754,20656,11170,11716,23454,22932,3
1673,-3,-1279,22401,11170,11779,23499,22932,3
797,152,-422,22576,11219,11703,23615,22932,3
327,13,-343,24223,11157,11779,23592,23022,3
525,-102,-261,24034,11157,11804,23477,22887,3
1180,-3,-466,24438,11157,11754,23522,22977,3
1091,187,-390,23499,11206,11906,23522,22820,3
447,-100,-219,23385,11206,11932,23546,22955,3
-384,24,163,23431,11206,11906,23339,22843,3
-808,-140,160,24223,11182,12060,23431,22665,3
546,-64,-159,25742,11182,12215,23294,22843,3
37,65,120,26618,11157,12241,23408,23067,3
-39,-7,-38,26305,11206,12543,23499,23022,3
-6,-36,42,27745,11182,12398,23431,23044,3
123,-25,66,28697,11157,12320,23477,22999,3
81,-56,29,27745,11157,12254,23522,22865,3
16,6,28,27068,11206,12293,23499,22887,3
-52,23,17,26539,11145,12228,23477,22843,3
-8,-36,44,26331,11206,12267,23294,22932,3
160,-150,6,26073,11170,12124,23477,22754,3
88,-23,-9,25717,11255,11881,23271,22731,3
193,30,-40,25515,11280,11754,23112,22709,3
-130,-62,31,25291,11304,11665,23022,22488,3
-828,-192,239,25767,11255,11728,23112,22488,3
-3936,-193,1836,28812,11206,11716,23362,22887,3
1953,-144,682,31529,11317,12124,23684,23022,3
88,-118,-225,31087,11268,12150,23499,22843,3
108,134,-242,30469,11255,12215,23499,22665,3
1372,-167,-414,30256,11280,12124,23454,22709,3
3200,-132,-1516,29042,11206,12009,23499,22843,3
3140,-5,-1104,27499,11231,12009,23477,22932,3
268,209,-134,26723,11194,11919,23339,22776,3
-1282,336,654,26776,11255,11932,23112,22709,3
-1975,28,332,27364,11255,11868,23135,22709,3
-552,-43,169,27472,11182,11957,23203,22643,3
-167,58,63,27527,11231,11932,23180,22599,3
-128,89,0,27472,11206,11881,23135,22599,3
41,136,-104,27966,11268,12060,23294,22865,3
-337,21,137,28301,11268,12189,23203,22754,3
91,-189,-60,27994,11304,12176,23044,22488,3
39,-123,-128,26935,11206,12189,23044,22665,3
19,-7,-51,26487,11206,12073,23157,22510,3
-93,55,-30,25996,11219,12112,23022,22532,3
-15,30,-27,26047,11206,12073,23022,22488,3
-22,-17,42,25869,11219,12112,23112,22488,3
160,-10,-26,25894,11182,11754,22977,22488,3
83,23,-10,25843,11255,11615,22843,22576,3
111,37,-29,25894,11219,11578,22798,22423,3
65,37,3,25869,11268,11490,22709,22270,3
-73,-39,92,25793,11341,11503,22687,22226,3
-121,-37,41,25641,11304,11503,22621,22226,3
-89,9,7,25616,11231,11503,22754,22183,3
45,-11,9,25742,11206,11478,22820,22205,3
219,-110,56,25691,11268,11490,22820,22313,3
200,-88,164,25691,11268,11540,22932,22313,3
-16,-39,-3,25616,11255,11578,22932,22292,3
-81,32,-13,25641,11243,11540,22776,22488,3
18,22,0,25920,11231,11628,23044,22599,3
106,-74,5,25869,11255,11578,23090,22444,3
-9,-77,31,25793,11255,11565,23090,22576,3
190,-64,-24,25945,11231,11640,22977,22488,3
180,-91,-71,25818,11255,11665,22932,22532,3
-202,5,139,25793,11219,11678,23067,22444,3
-44,-16,30,25843,11268,11628,23022,22401,3
25,55,-48,25742,11206,11640,22932,22313,3
0,-33,14,25666,11255,11665,22887,22357,3
-107,5,51,25666,11170,11665,22955,22357,3
-222,3,-21,25616,11231,11590,22843,22423,3
-30,-22,115,25591,11206,11653,22798,22379,3
-9,34,26,25691,11255,11640,22865,22313,3
9,-69,-5,25742,11206,11615,22865,22292,3
-408,-2,227,25971,11231,11578,22754,22313,3
-631,110,302,26305,11170,11603,22776,22335,3
35,-152,-38,26176,11170,11603,22776,22248,3
411,-122,-146,26124,11170,11703,22687,22357,3
248,-51,-61,26124,11219,11628,22776,22226,3
10,38,-81,26099,11219,11665,22910,22183,3
-119,21,105,25894,11182,11665,22731,22183,3
30,51,52,25894,11255,11628,22865,22270,3
-428,-132,-84,25894,11206,11653,22709,22183,3
-416,36,-69,25843,11182,11653,22843,22226,3
-208,33,69,26022,11182,11628,22621,22183,3
-107,4,53,25996,11219,11653,22621,22226,3
-16,-1,45,25894,11206,11653,22665,22161,3
-130,2,80,26124,11170,11653,22687,22118,3
-280,-3,251,26124,11243,11603,22621,22226,3
-46,39,83,26253,11170,11615,22599,22183,3
40,29,-26,26331,11231,11691,22731,22226,3
139,2,-146,26644,11170,11754,22820,22423,3
141,23,-142,27418,11219,11868,22910,22270,3
85,30,-131,28301,11170,11906,22932,22401,3
111,74,-143,28414,11157,11919,22910,22313,3
515,156,-430,27994,11231,12163,22820,22423,3
681,165,-278,28470,11255,12385,22865,22955,3
754,106,-409,29071,11255,12306,22820,23044,3
596,81,-294,29187,11206,12124,22932,22999,3
256,295,-206,28612,11182,12176,22798,23022,3
134,192,-177,27911,11170,12124,22776,22977,3
163,267,-184,27609,11255,12086,22754,22910,3
-198,-181,35,27283,11243,13246,21711,22488,3
-268,-135,129,26723,11243,14562,21690,22357,3
-440,-41,52,25971,11280,19477,21500,27148,3
-184,-71,14,24995,11255,23431,24630,28869,3
-90,-85,44,24129,11317,25793,27202,30015,3
232,176,-7,23707,11354,28527,30015,29746,3
149,106,-45,23339,11292,30962,32566,29013,3
204,125,138,23431,11304,31817,32238,29216,3
166,44,132,23225,11329,31087,31339,30015,3
-81,77,101,23248,11391,30499,30745,29391,3
107,-103,13,23431,11416,28612,29686,29274,3
26,-69,-28,23431,11453,26723,28527,29158,3
152,-87,-20,23477,11478,25044,27911,29216,3
37,211,-39,23707,11528,20879,27122,29450,3
-204,233,-217,24176,11453,14385,25996,29071,3
304,217,-274,23940,11304,11957,25616,28640,3
156,79,-74,23940,11268,11528,25540,28612,3
-165,9,-64,23800,11268,11453,25390,28583,3
-355,-125,46,23499,11255,11428,25390,28583,3
91,25,118,23499,11268,11453,25341,28357,3
300,-439,122,23431,11206,11465,25365,28583,3
257,-18,-33,23316,11206,11553,25365,28726,3
152,208,-126,23316,11255,11528,25365,28783,3
218,143,-195,23499,11231,11590,25118,28869,3
136,362,-254,23592,11255,11578,25291,28869,3
-115,327,-206,23754,11292,11653,25291,28869,3
-328,111,-73,23684,11317,11754,26253,28812,3
-28,129,8,23615,11268,11817,27472,29071,3
23,95,75,23661,11329,11804,29509,29245,3
-30,18,7,23522,11329,12112,32369,29391,3
-177,-57,-2,22932,11304,12556,34696,29568,3
-31,-81,15,22313,11304,12716,37543,29421,3
-416,-87,126,22096,11379,13095,40605,30591,3
-516,-175,124,21711,11416,13246,40955,31339,3
29,-156,126,21627,11416,13122,39202,30015,3
-68,-120,74,21458,11366,13068,35236,28133,3
-216,-98,34,21458,11366,13027,26331,25266,3
-88,4,-2,21521,11354,13013,25793,24946,3
10,110,-39,21270,11366,13027,25641,24970,3
21,60,-2,20737,11379,12972,25591,24946,3
-16,74,-75,18691,11329,12851,25216,24702,3
-11,5,-23,18344,11317,12783,25192,24654,3
-120,40,-20,17986,11379,12797,24946,24510,3
-20,7,-22,17495,11304,12743,24654,24271,3
-88,76,-56,17220,11354,12810,24582,24390,3
-89,-24,-9,17016,11354,12783,24510,24176,3
51,15,-36,16882,11304,12756,24606,24247,3
37,-4,0,16798,11268,12797,24510,24223,3
0,27,-13,16781,11280,12756,24414,24223,3
-12,-14,13,16831,11304,12770,24462,24129,3
43,5,10,16831,11280,12797,24366,24176,3
-22,-7,38,17237,11255,12716,24510,24081,3
37,-17,12,18057,11317,12797,24390,23940,3
-19,14,-3,18581,11329,12703,24247,23870,3
-15,-4,1,18599,11255,12703,24223,23987,3
-17,6,6,18344,11292,12797,24129,23987,3
-21,15,-9,18272,11304,12756,24081,23987,3
7,3,-8,18164,11317,12703,24058,23894,3
3,-24,8,18254,11268,12743,24129,23870,3
-62,-9,-19,18783,11268,12797,23964,23870,3
-15,0,2,19231,11304,12770,24058,23800,3
47,-9,2,19535,11317,12756,24058,23847,3
-14,-18,26,20117,11280,12783,24034,23707,3
28,-13,26,20777,11268,12797,23847,23707,3
31,-7,4,21395,11317,12716,23964,23800,3
20,45,-35,21989,11354,12743,23847,23754,3
29,18,6,21903,11354,12743,23964,23847,3
53,-14,10,21690,11317,12810,23754,23847,3
37,-10,-28,21967,11366,12797,23964,23661,3
147,-37,-40,21989,11354,12743,23847,23661,3
34,54,-83,21967,11354,12783,24129,23847,3
341,-64,-20,22270,11366,12932,23940,23800,3
-32,167,-190,22248,11317,12918,23730,23847,3
149,-43,13,22118,11304,13081,23707,23661,3
-50,120,-109,22118,11329,13205,23800,23661,3
-206,84,20,22053,11304,13163,23707,23684,3
-82,-46,80,22118,11354,13122,23684,23800,3
7,63,-19,22140,11304,13122,23754,23847,3
-157,19,32,21989,11366,13150,23964,23684,3
13,4,1,21924,11304,13122,23800,23754,3
-93,-66,103,21989,11304,14651,25093,24921,3
-171,-37,139,21967,11329,14282,26357,26566,3
-169,-3,125,21733,11391,13636,27256,28022,3
-127,-82,140,21754,11366,13482,28869,29568,3
-480,-93,270,21796,11403,13454,30684,31339,3
-194,-158,198,21395,11379,12878,32205,32435,3
-173,-171,98,20940,11304,12663,33991,33371,3
-230,-147,189,20961,11317,12583,35418,34235,3
66,47,58,21648,11304,12359,35345,33337,3
132,202,2,21882,11354,12060,34589,32140,3
-92,-12,-67,21711,11255,11970,36010,32140,3
-100,18,-68,21648,11304,11906,34874,31849,3
105,-135,50,21711,11304,11919,34412,31881,3
96,41,-122,21627,11255,11932,33748,31720,3
63,-31,-19,21542,11304,11855,33337,31624,3
-37,-37,3,21563,11255,11728,33405,31244,3
-59,6,-7,21563,11317,11703,33202,31276,3
-37,20,9,21479,11231,11578,31402,31529,3
-123,71,-66,21563,11133,11453,30931,31276,3
-139,109,38,21416,11145,11403,27095,30530,3
-81,-3,30,21270,11072,11317,26882,30530,3
-210,-10,97,21312,11036,11255,26723,30377,3
-291,-33,88,21333,11036,11231,26618,30530,3
-490,19,172,21375,11072,11109,26670,30715,3
-203,-26,60,21416,11060,11072,26566,30469,3
-106,-5,79,21648,10999,11024,26513,30469,3
-83,24,20,21542,10987,11060,26383,30408,3
1,-10,-24,21542,10975,10975,26487,30226,3
-9,-19,15,21563,10927,11121,26435,30469,3
-7,-24,13,21648,10963,10963,26253,30195,3
10,-40,22,21627,10963,11012,26228,30075,3
34,1,-46,21690,10927,11060,26305,30075,3
64,15,-24,21648,10915,11012,26176,30165,3
47,26,-41,21648,10939,11060,26305,30165,3
4,-48,53,21754,10975,10963,26124,29925,3
-62,43,84,21627,10987,11133,26073,26566,3
93,38,-28,21479,10963,10987,25793,25717,3
-19,66,-39,21500,10987,11036,25742,25540,3
-43,-1,41,21754,11060,10975,25742,25591,3
3,-24,61,21775,11012,10963,25691,25415,3
56,0,14,21711,11072,10975,25540,25241,3
-15,-16,12,21754,11012,10987,25515,25390,3
98,-73,-1,21796,11109,11072,25415,25390,3
73,-46,-23,22032,11084,11036,25591,25390,3
83,-173,25,22687,11012,11170,25490,25216,3
-29,4,26,23135,11084,11109,25415,25341,3
-12,-7,13,23454,11072,11231,25390,25142,3
67,-20,8,23477,11036,11145,25515,25118,3
19,-2,-4,23477,11060,11072,25415,25316,3
124,-127,-4,23499,11072,11121,25341,25216,3
226,-79,-17,23661,11133,11255,25440,25291,3
193,-212,61,23847,11072,11403,25440,25241,3
-30,44,80,23894,11072,11416,25341,25341,3
-97,46,62,23754,11121,11366,25515,25167,3
-254,-8,105,23894,11109,11354,26566,25341,3
-582,220,120,23940,11096,11416,27418,25767,3
-139,-41,46,24034,11157,11403,28161,25945,3
-142,96,-30,24058,11170,11465,28612,26099,3
-35,-2,36,23964,11170,11416,28385,26124,3
-178,59,17,24606,11170,11503,28301,25920,3
-203,17,93,25192,11157,11503,27939,25996,3
-146,-108,244,25945,11206,11428,28527,25843,3
109,-63,-42,25717,11219,11540,28301,25742,3
127,-37,-39,25591,11157,11565,28161,25691,3
183,78,-250,24342,11170,11578,28077,25691,3
486,-23,-327,24897,11206,11528,28133,25591,3
721,-227,-342,27691,11206,11540,28049,25691,3
599,-149,-236,29274,11170,11503,28133,25691,3
-26,-10,-22,28527,11109,11603,28301,25742,3
175,49,32,30105,11121,11615,28245,25793,3
-19,58,-41,30469,11109,11804,28105,25945,3
-82,88,-10,31339,11170,11906,28022,25996,3
-333,192,2,31339,11182,12215,28077,25894,3
72,84,-72,26618,11206,12306,27856,25818,3
-45,83,-66,23112,11182,12176,27800,25818,3
84,19,-25,19080,11206,12124,27966,25793,3
-184,105,-65,17495,11219,12112,27800,25666,3
-32,-13,-36,16949,11231,12112,27939,25691,3
-9,-24,-22,16915,11157,12021,27911,25540,3
-7,-21,-12,17152,11206,12021,27911,25515,3
38,-45,-33,17306,11170,12073,28077,25616,3
6,-5,-12,17774,11243,12021,28049,25616,3
-28,17,-5,18075,11182,12034,27911,25515,3
-140,-9,29,18272,11194,12047,27856,25591,3
21,-35,-108,18344,11157,12060,27828,25316,3
-143,68,2,18581,11231,12009,27911,25540,3
-145,98,-43,18783,11243,11996,27856,25515,3
111,-22,-6,19043,11170,12034,27911,25415,3
5,43,32,18875,11170,12060,27773,25390,3
-11,13,-14,18581,11231,12060,27691,25415,3
93,30,-62,19193,11231,12034,27691,25316,3
74,2,-6,19231,11231,12009,27939,25291,3
20,-8,49,19439,11255,12073,27800,25216,3
-20,-23,13,19708,11182,12060,27828,25241,3
13,-9,0,19999,11219,12124,27718,25415,3
28,-15,-12,20117,11206,12124,27718,25341,3
30,-5,-3,20395,11182,12086,27691,25167,3
0,-13,15,20236,11219,12163,27856,25316,3
18,-15,3,20395,11170,12086,27800,25192,3
17,10,-2,20315,11206,12112,27718,25341,3
-1,0,33,20676,11255,12112,27636,25216,3
-14,-2,10,20757,11219,12163,27773,25291,3
-4,12,-1,21105,11170,12163,27581,25142,3
-17,11,9,21521,11182,12215,27691,25142,3
-29,9,16,21924,11231,12228,27581,25216,3
-13,17,11,22335,11182,12267,27581,25142,3
-18,2,9,22401,11157,12280,27581,25093,3
0,13,7,22335,11219,12241,27609,25192,3
-38,-8,0,22488,11255,12267,27718,25019,3
-3,-21,9,22576,11255,12306,27800,25192,3
-12,3,14,22599,11206,12320,27554,25142,3
18,21,3,22843,11255,12372,27609,25093,3
-15,5,1,22887,11182,12346,27773,25093,3
-12,-30,4,23203,11219,12293,27499,25019,3
-16,-2,-9,23135,11231,12267,27472,25118,3
17,-17,0,22977,11182,12293,27691,25019,3
9,6,6,22932,11182,12280,27499,25118,3
12,2,0,22887,11206,12293,27691,24946,3
-4,-7,4,22865,11170,12280,27691,25118,3
-9,-1,5,22843,11206,12293,27418,25068,3
-2,-12,-9,22754,11255,12346,27499,24921,3
-4,-4,7,22687,11182,12293,27283,24946,3
-14,6,5,22754,11206,12346,26882,25093,3
36,-3,4,22576,11206,12359,26882,24946,3
15,-2,23,22599,11255,12743,27041,24897,3
5,13,-2,22576,11255,12610,26935,25019,3
-28,-7,27,22488,11231,12530,26935,24848,3
-9,-57,44,22488,11255,12504,26776,25044,3
-13,-87,56,22466,11182,12490,26908,24897,3
11,-44,25,22226,11219,12451,25515,24995,3
34,13,-23,22161,11231,12543,25490,24873,3
-9,-35,24,22183,11194,12477,25341,24824,3
30,-26,18,22183,11219,12477,25241,24775,3
-35,2,6,21882,11255,12530,25142,24824,3
57,-34,32,22140,11206,12543,25192,24799,3
41,-76,0,22687,11255,12556,24995,24824,3
25,-18,12,22599,11206,12490,24995,24897,3
44,-15,-19,21989,11255,12464,24995,24824,3
31,-12,21,22183,11255,12477,24946,24799,3
1,-14,-4,22335,11170,12543,25093,24654,3
-28,19,-9,22313,11231,12477,25068,24630,3
-1,-21,-14,22599,11231,12530,25019,24824,3
9,-5,-16,22401,11170,12543,24897,24727,3
-39,74,-36,22313,11255,12530,24946,24897,3
11,47,-12,22292,11219,12530,25044,24799,3
-23,28,-6,22731,11255,12517,24921,24751,3
-35,3,15,22709,11182,12504,24848,24654,3
-18,-20,38,23044,11255,12530,25044,24727,3
4,24,2,23499,11268,12556,24897,24775,3
-30,-14,23,23800,11255,12517,24799,24775,3
-31,-13,10,24702,11206,12596,24799,24775,3
-17,-33,26,25767,11255,12583,24995,24799,3
-21,-45,27,27095,11231,12583,24751,24678,3
18,-14,32,28273,11219,12649,24751,24799,3
-7,-6,-5,28812,11243,12663,24799,24799,3
4,-18,12,29158,11206,12610,24751,24582,3
1,-17,14,29775,11255,12690,24678,24702,3
7,8,-13,30105,11243,12596,24606,24702,3
2,6,-36,30226,11182,12703,24630,24558,3
-9,-12,5,30226,11243,12610,24582,24534,3
-9,25,-29,30286,11206,12676,24654,24654,3
6,14,-5,30469,11280,12649,24727,24630,3
-9,-7,8,30591,11170,12583,24654,24654,3
-12,-16,-3,30469,11255,12663,24702,24630,3
-10,-23,23,31087,11206,12690,24558,24702,3
13,-32,11,31785,11194,12690,24702,24534,3
3,-25,12,32566,11206,12649,24558,24510,3
-7,6,3,32699,11206,12663,24678,24558,3
7,3,5,32566,11231,12636,24630,24510,3
-9,-7,2,31978,11194,12690,24702,24534,3
-20,-9,6,31339,11170,12649,24510,24654,3
-14,-5,-7,31213,11243,12703,24486,24486,3
-23,-18,-5,31370,11231,12690,24438,24438,3
-39,-38,46,31465,11255,12703,24438,24606,3
-15,11,6,31370,11255,12649,24606,24414,3
-50,2,50,31752,11268,12636,24294,24414,3
-171,-2,33,32173,11231,12623,24438,24534,3
-111,7,6,32205,11206,12690,24318,24390,3
-18,21,12,32271,11280,12636,24105,24486,3
-43,20,1,32732,11206,12636,24034,24486,3
-144,41,30,32765,11255,12676,24223,24390,3
-198,43,-23,32765,11268,12610,23987,24271,3
-173,24,39,32500,11255,12636,24058,24247,3
28,11,-61,32533,11219,12716,24152,24318,3
34,54,-74,32303,11255,12703,24105,24390,3
-109,90,-53,32238,11206,12623,23987,24247,3
-9,1,-3,32010,11255,12636,23987,24223,3
59,-100,15,31978,11268,12610,24058,24271,3
6,-13,4,32043,11219,12703,24176,24390,3
-68,8,17,31849,11206,12623,24152,24176,3
41,-104,47,31720,11268,12610,24152,24129,3
-15,-3,13,31593,11255,12690,23940,24223,3
-30,12,40,31465,11231,12703,24081,24176,3
15,18,-2,31402,11255,12610,24152,24366,3
-6,5,2,31339,11219,12716,24081,24176,3
-22,9,-11,31339,11255,12703,23894,24342,3
-38,15,0,31339,11255,12743,24058,24318,3
-8,-9,15,31402,11255,12690,24129,24294,3
-6,-4,12,31213,11255,12743,24034,24438,3
6,-12,13,31150,11231,12743,23940,24223,3
-5,-24,15,31087,11268,12716,24011,24223,3
8,-27,0,31181,11231,12649,23870,24247,3
6,-7,13,31025,11268,12649,24081,24152,3
12,-10,18,30900,11206,12716,23940,24129,3
-29,-67,47,30715,11231,12690,23847,24034,3
-18,-66,-15,30715,11268,12636,23964,24152,3
-35,17,-26,30622,11268,12703,23987,24223,3
3,-16,13,30347,11268,12676,23940,24223,3
-9,31,-6,30499,11219,12649,24011,24081,3
12,19,-20,30408,11268,12690,23870,24247,3
16,-14,-1,30226,11280,12703,23940,24058,3
-3,26,-11,30045,11268,12690,24011,24176,3
-5,13,-19,29627,11304,12676,23894,24223,3
7,16,-17,28927,11317,12703,23964,24011,3
10,14,-11,28357,11255,12636,23847,24223,3
-11,18,-22,27773,11255,12623,23917,24223,3
38,-30,-8,27499,11255,12703,23964,24081,3
-1,-1,-15,27445,11317,12610,23917,24152,3
55,-92,24,27068,11243,12703,23824,23987,3
82,-22,44,26566,11304,12596,23940,24058,3
-40,35,43,26202,11292,12596,23894,23987,3
35,-34,40,26099,11255,12385,23754,24152,3
16,-36,34,26047,11255,12086,23800,24105,3
-3,12,0,26099,11219,11957,23870,23940,3
6,11,24,26022,11243,11653,23777,24129,3
-40,3,28,26022,11231,11528,23569,23894,3
-180,127,74,25996,11157,11243,23044,23569,3
-216,48,106,25996,11157,11206,22798,23431,3
-65,-18,29,26202,11145,11157,22887,23431,3
-173,14,98,25996,11157,11133,22887,23431,3
-9,-21,22,25945,11157,11133,23022,23499,3
-49,4,19,25996,11170,11109,23022,23339,3
-54,17,9,25818,11084,11157,22932,23385,3
-36,-82,92,25945,11157,11072,23022,23362,3
18,12,10,25894,11072,11157,23067,23339,3
21,30,-41,25945,11157,11060,23022,23316,3
5,-10,3,25843,11072,11109,23044,23225,3
-3,-29,12,25920,11072,11072,22932,23248,3
-19,36,24,25793,11133,11072,22932,23316,3
-44,63,10,25818,11133,11243,22955,23294,3
-89,-17,103,25894,11060,11255,23067,23271,3
-309,21,198,26022,11084,11219,23044,23248,3
-715,150,390,26099,11072,11170,22843,23225,3
-573,273,366,26124,11096,11231,23044,23203,3
-430,56,403,26409,11157,11219,23044,23203,3
-464,142,322,26618,11109,11170,23022,23271,3
-238,75,218,26461,11157,11255,22955,23385,3
-251,80,167,26409,11084,11182,22865,23362,3
-28,-72,56,26566,11109,11182,22887,23362,3
-24,37,18,26566,11157,11182,23022,23362,3
-20,-48,2,26435,11133,11255,23090,23385,3
82,103,-164,26566,11157,11206,22977,23385,3
-5,24,-16,26566,11157,11255,22977,23294,3
-35,13,-17,26461,11121,11280,22887,23225,3
-68,45,26,26409,11072,11206,23022,23203,3
-63,30,17,26644,11084,11280,22865,23135,3
-21,5,2,27148,11072,11206,22955,23225,3
-28,17,16,27828,11157,11354,22977,23112,3
-36,34,24,28583,11157,11354,22932,23271,3
-60,-35,54,29333,11096,11354,22843,23294,3
-60,36,20,30165,11157,11268,22887,23203,3
-21,-28,13,30256,11121,11379,22798,23203,3
-19,-17,-12,29627,11121,11366,22910,23431,3
95,4,14,27856,11121,11304,23044,23248,3
18,-73,70,27911,11157,11366,23067,23431,3
-21,34,0,27718,11084,11379,23730,23431,3
54,65,0,27636,11170,11379,23225,23431,3
8,6,-23,27499,11121,11391,23203,23294,3
-37,-33,-6,27472,11157,11317,24152,24848,3
-78,24,49,27418,11170,11379,25616,26099,3
-59,5,7,27364,11157,11366,26305,26124,3
-32,9,9,27256,11157,11366,26566,26099,3
-29,-2,-8,27283,11170,11366,26670,25945,3
24,11,-1,27256,11109,11379,26988,25996,3
-15,26,7,27256,11109,11354,26829,26022,3
9,28,10,27256,11133,11403,26935,26022,3
1,5,9,27364,11157,11403,26829,25742,3
-24,15,10,27256,11157,11379,26644,25793,3
-19,23,-16,27256,11121,11403,26566,25691,3
17,2,15,27391,11170,11416,26461,25717,3
-12,-16,16,27364,11121,11453,26435,25641,3
0,-6,4,27391,11206,11440,26435,25591,3
-24,-7,22,27283,11170,11478,26331,25591,3
-16,-4,18,27202,11170,11478,26331,25515,3
-19,16,9,27337,11133,11490,26409,25490,3
-25,-9,-4,27256,11145,11503,26566,25565,3
-34,-1,-5,27256,11182,11453,26644,25515,3
-38,22,6,27310,11157,11465,26723,25591,3
-53,22,9,27148,11157,11515,26644,25490,3
-62,-24,51,27202,11145,11503,26566,25291,3
-49,-42,-4,27256,11157,11503,26592,25341,3
-76,-111,46,27283,11157,11478,26829,25440,3
-99,-10,72,27175,11219,11503,26776,25490,3
-86,-64,91,26961,11206,11528,26618,25415,3
-50,-11,-69,26855,11219,11503,26855,25440,3
-2,-113,-33,26855,11157,11503,26829,25365,3
15,-134,-121,26829,11206,11515,26670,25316,3
-51,-119,-11,26855,11157,11540,26592,25365,3
12,-9,83,26644,11157,11503,26539,25316,3
33,-115,36,26618,11182,11528,26644,25390,3
7,-82,-1,26461,11231,11453,26409,25266,3
51,-66,-12,26513,11206,11490,26228,25440,3
42,-48,-56,26409,11121,11515,25793,25616,3
123,2,43,26435,11121,11528,25019,24946,3
135,53,50,26409,11231,11553,23964,24271,3
40,-38,13,26409,11170,11565,23730,23940,3
0,34,72,26435,11157,11578,23592,23987,3
10,97,47,26357,11157,11578,23569,23754,3
61,54,14,26435,11231,11578,23592,23894,3
4,63,-23,26228,11170,11540,23431,23894,3
-15,-10,-13,26228,11157,11565,23454,23847,3
5,22,-1,26202,11206,11565,23225,23684,3
42,12,-5,26253,11182,11553,23248,23661,3
-7,16,34,26022,11231,11615,23385,23684,3
18,10,-5,26099,11170,11553,23203,23730,3
4,20,-12,26099,11206,11603,23135,23615,3
8,0,14,26124,11170,11553,23225,23522,3
-11,5,41,25818,11219,11603,23090,23522,3
-10,31,7,25742,11157,11553,23225,23661,3
2,-27,16,25767,11157,11528,22955,23431,3
3,11,0,25742,11157,11603,22932,23477,3
15,28,-13,25793,11194,11540,22932,23385,3
0,-4,1,25666,11231,11540,22955,23431,3
2,-15,-6,25894,11206,11603,23022,23316,3
-2,17,-6,25894,11219,11515,22932,23385,3
-7,-4,-2,25945,11194,11528,22932,23431,3
-21,-33,14,26176,11206,11603,22999,23499,3
-1,-19,14,26124,11170,11528,23022,23316,3
2,7,-2,26202,11157,11615,22865,23431,3
14,1,-2,26202,11157,11590,22887,23385,3
-7,-2,7,26150,11157,11565,23022,23431,3
-6,1,-9,26150,11219,11565,22910,23316,3
-6,3,8,26099,11157,11603,22932,23431,3
8,12,-9,26228,11206,11603,22865,23294,3
-7,-9,6,26305,11182,11528,23022,23316,3
-6,5,-2,26331,11231,11553,23022,23431,3
8,2,-5,26409,11255,11528,23022,23362,3
-2,0,0,26435,11231,11615,22932,23454,3
-3,-2,-6,26383,11219,11553,22798,23316,3
-2,0,-9,26566,11231,11553,22843,23316,3
4,-1,-4,26461,11219,11653,22955,23362,3
11,6,-3,26435,11206,11553,22977,23431,3
5,-5,11,26461,11219,11553,22977,23431,3
13,7,-6,26253,11219,11578,22798,23271,3
11,12,-4,25920,11243,11615,22865,23248,3
-8,6,8,25691,11206,11628,22843,23294,3
23,14,-17,25142,11157,11540,22887,23362,3
3,5,-14,24510,11219,11553,22887,23385,3
-4,14,-24,24271,11157,11628,22999,23316,3
-2,-3,8,24129,11157,11603,22798,23225,3
4,1,-2,24129,11145,11540,22887,23294,3
-14,9,-9,23454,11206,11565,22932,23477,3
-2,5,-4,23044,11170,11528,22932,23271,3
2,7,-7,23022,11182,11553,22887,23294,3
-7,-14,19,22955,11206,11603,22843,23294,3
-8,-20,15,22910,11157,11565,22820,23362,3
-4,-35,13,23022,11170,11603,22820,23225,3
19,-27,4,23135,11231,11565,22955,23248,3
20,-65,34,23615,11182,11540,22820,23477,3
4,6,-5,23592,11219,11603,22955,23385,3
4,3,-2,23707,11157,11578,22887,23203,3
14,28,-21,23661,11157,11603,22865,23385,3
11,5,-11,23684,11157,11603,22798,23294,3
16,19,-17,23615,11219,11553,22843,23408,3
4,17,-13,23754,11219,11528,22932,23431,3
11,5,0,23754,11206,11603,22887,23385,3
6,15,-4,23661,11157,11528,22932,23294,3
-4,-1,18,23431,11206,11553,22932,23316,3
1,21,-9,23203,11133,11615,22798,23248,3
9,2,-35,23225,11219,11615,22843,23316,3
3,-6,-9,23294,11157,11565,22865,23385,3
4,-4,-10,22977,11170,11528,22955,23248,3
-2,-11,0,23022,11206,11628,22887,23248,3
10,6,-8,22843,11157,11578,22798,23294,3
6,1,-4,22887,11170,11603,22955,23248,3
14,-1,-3,22776,11157,11603,22955,23294,3
7,0,-6,22887,11182,11565,22776,23431,3
9,10,-12,22843,11182,11603,22955,23431,3
5,1,-11,22599,11133,11553,22977,23203,3
1,16,-18,22532,11157,11553,22865,23225,3
4,12,-21,22488,11231,11603,22932,23248,3
7,-11,-10,22357,11157,11603,22820,23431,3
11,-4,-5,22335,11194,11603,22977,23225,3
16,-2,-10,22248,11206,11553,22887,23225,3
2,-1,-14,22313,11231,11590,22887,23339,3
-2,13,-19,22248,11157,11528,22977,23225,3
8,11,-11,22205,11157,11553,22843,23294,3
5,-6,15,21989,11255,11540,22887,23385,3
1,-5,5,21967,11182,11565,22932,23385,3
7,5,7,21903,11157,11553,22932,23316,3
6,-3,5,21924,11157,11553,22843,23362,3
11,7,1,21839,11145,11553,22932,23385,3
19,7,-4,21903,11206,11615,22754,23294,3
20,8,-15,21882,11231,11528,22776,23203,3
9,13,-16,21733,11170,11540,22843,23316,3
0,-12,9,21711,11157,11628,22709,23157,3
3,-8,8,21648,11157,11540,22709,23294,3
2,-4,-4,21563,11157,11603,22754,23225,3
6,-8,8,21775,11255,11565,22798,23248,3
16,-27,14,21711,11231,11565,22687,23316,3
21,-18,29,21989,11170,11553,22687,23225,3
4,21,3,22444,11157,11553,22754,23294,3
9,6,-1,22865,11157,11553,22709,23294,3
4,10,-3,23112,11206,11565,22709,23316,3
2,3,-5,23225,11206,11603,22665,23271,3
-2,-6,7,23112,11145,11565,22665,23112,3
-4,0,4,23112,11157,11603,22820,23225,3
-3,-11,15,23157,11170,11553,22820,23090,3
-2,-6,9,23135,11206,11590,22754,23316,3
4,0,7,23203,11157,11615,22709,23294,3
29,-3,25,23777,11219,11615,22754,23157,3
19,-6,22,24223,11170,11603,22643,23203,3
15,3,21,24558,11182,11590,22665,23157,3
0,13,-13,24995,11206,11615,22843,23294,3
-7,-19,13,24995,11206,11515,22865,23180,3
-3,-11,17,25142,11133,11553,22843,23180,3
1,-2,11,25192,11157,11528,22665,23157,3
35,-14,23,25616,11157,11640,22709,23135,3
41,-17,23,25691,11170,11578,22687,23248,3
-5,-12,21,25717,11231,11615,22665,23135,3
-3,-9,4,25818,11219,11540,22731,23135,3
11,3,-9,25945,11157,11615,22687,23385,3
10,-1,6,25894,11219,11603,22798,23157,3
1,-12,14,25971,11157,11553,22687,23135,3
10,-1,7,25945,11145,11603,22754,23135,3
44,23,-8,26202,11219,11565,22776,23203,3
25,-10,44,26461,11170,11603,22798,23339,3
12,19,-5,26618,11157,11553,22665,23385,3
7,-10,6,26723,11206,11540,22643,23316,3
51,-12,1,26908,11133,11628,22599,23203,3
49,-70,-23,27256,11206,11540,22843,23339,3
32,17,-25,27581,11170,11603,22776,23294,3
13,-17,-3,27527,11133,11553,22709,23067,3
1,-31,9,27581,11157,11615,22843,23157,3
47,2,-9,27911,11121,11540,22665,23248,3
12,34,-44,28022,11133,11578,22687,23067,3
19,18,-14,27994,11170,11615,22754,23225,3
17,11,-7,28273,11157,11565,22843,23203,3
5,26,-17,28301,11157,11603,22887,23067,3
5,-36,41,28301,11109,11603,22776,23157,3
-13,-16,2,28385,11072,11553,22820,23203,3
3,-19,7,28329,11157,11615,22687,23067,3
9,0,0,28189,11133,11553,22865,23135,3
-4,7,-10,28273,11121,11565,22687,23022,3
4,-26,27,28189,11157,11590,22665,22977,3
13,-17,7,28077,11157,11615,22665,23022,3
121,-96,37,28301,11133,11565,22820,22999,3
11,-58,43,28105,11157,11553,22665,23135,3
28,3,-15,28077,11157,11603,22665,22977,3
13,2,-3,28077,11060,11615,22798,22977,3
18,-23,7,28022,11121,11640,22709,23067,3
124,-150,-89,27911,11060,11578,22731,23157,3
393,-375,-31,25996,11109,11615,22865,22999,3
346,-334,-143,25591,11121,11653,22776,23112,3
156,7,84,25540,11109,11665,22754,23067,3
88,143,20,25316,11084,11653,22820,23067,3
72,-103,-64,25316,11109,11653,22709,22932,3
-4,102,-48,25192,11121,11615,22665,22999,3
-13,-16,-67,25316,11072,11653,22754,23022,3
8,75,-32,25316,11133,11678,22776,23067,3
20,61,71,25216,11157,11590,22665,22887,3
-36,82,-82,25167,11096,11653,22798,22977,3
-57,53,-60,25118,11121,11603,22709,22932,3
82,-87,-46,25093,11072,11603,22820,23022,3
212,-147,-90,25019,11157,11703,22798,23067,3
7,70,2,24946,11109,11628,22709,23044,3
18,-47,-47,24897,11157,11665,22798,23022,3
8,45,-20,24970,11157,11590,22843,22887,3
127,4,87,24946,11109,11603,22754,23044,3
296,-182,-121,24946,11072,11665,22665,22955,3
294,-90,-287,24775,11157,11603,22843,23022,3
331,-102,-289,24606,11084,11653,22798,23022,3
-19,-33,-73,24318,11109,11678,22754,23067,3
-186,22,-35,24011,11084,11703,22709,23067,3
-48,48,-23,23894,11157,11603,22776,22977,3
378,-172,-357,23754,11121,11653,22843,23067,3
253,-118,-303,23754,11157,11615,22843,23044,3
-109,70,-85,23592,11121,11703,22687,23022,3
-17,-9,34,23870,11096,11590,22621,23022,3
-116,79,91,23522,11109,11603,22754,22843,3
-10,-76,102,24438,11109,11653,22665,22932,3
-7,-19,67,25641,11109,11615,22621,23022,3
26,29,36,27283,11157,11603,22776,23044,3
-59,48,37,28527,11084,11653,22776,22977,3
-8,102,-63,27911,11182,11678,22665,22932,3
26,-44,-3,27911,11206,11665,22665,22843,3
9,28,-30,28726,11157,11665,22776,22887,3
-18,-72,-72,28640,11170,11628,22709,22955,3
-18,-48,-12,28022,11157,11628,22621,22887,3
-77,-19,-18,27445,11182,11615,22576,22887,3
-7,-8,31,26829,11255,11653,22665,22776,3
24,35,6,26618,11206,11640,22754,22820,3
-73,38,-52,26566,11231,11691,22576,22798,3
-33,-17,-22,26357,11219,11603,22709,22887,3
45,29,68,26697,11206,11615,22665,22731,3
-32,59,-44,26855,11182,11603,22599,22843,3
1,37,-4,28357,11255,11665,22709,22887,3
52,-51,28,28927,11170,11678,22754,22754,3
56,-27,66,28955,11255,11615,22665,22820,3
91,-44,-17,28812,11206,11603,22643,22754,3
-9,-7,-47,28640,11219,11603,22554,22754,3
-56,-9,-47,28583,11206,11628,22532,22776,3
-59,-1,-88,28527,11231,11628,22665,22687,3
17,0,-10,28527,11170,11603,22687,22820,3
-11,1,7,28357,11170,11628,22532,22798,3
7,-6,-3,28414,11206,11603,22576,22798,3
4,-17,-10,28470,11219,11665,22576,22843,3
24,-5,10,28357,11255,11640,22621,22843,3
95,-24,-10,28414,11182,11703,22665,22731,3
86,-6,-45,28301,11170,11678,22709,22776,3
6,68,-36,28301,11255,11665,22576,22798,3
-35,15,1,28527,11219,11703,22576,22687,3
-12,-40,-65,28527,11255,11653,22621,22776,3
-35,-101,-82,28726,11231,11615,22554,22665,3
-94,-51,-82,28812,11231,11653,22488,22665,3
-187,204,-274,28527,11170,11653,22665,22798,3
20,105,-151,28697,11206,11716,22488,22599,3
82,-69,-10,28840,11255,11703,22665,22599,3
-56,34,332,29071,11243,11691,22444,22754,3
131,-77,-146,29100,11206,11678,22357,22754,3
148,-122,-22,29391,11206,11703,22532,22865,3
218,-232,-119,29538,11268,11703,22401,22887,3
136,-117,74,29538,11255,11716,22401,22955,3
236,-93,78,29421,11255,11678,22532,22955,3
59,-264,203,28726,11219,11678,22488,23022,3
239,-453,-233,28301,11170,11691,22665,23090,3
170,112,-58,28898,11194,11665,22621,23431,3
58,-149,127,29042,11231,11754,23203,23777,3
343,-249,-504,29100,11268,11716,24152,24438,3
567,-352,-410,29042,11268,11881,24176,24799,3
5,52,40,28927,11243,11957,24271,24848,3
-10,-41,58,28726,11219,11906,24654,24946,3
-55,-12,151,28669,11268,11944,25068,24897,3
0,10,30,28640,11255,11957,24751,24654,3
32,41,40,28357,11292,12009,24946,24654,3
89,-123,-33,28133,11255,12112,25390,25266,3
8,249,39,27472,11255,12228,26988,26644,3
